timestamp,lat,log,alt,roll,pitch,yaw,vel_x,vel_y,vel_z,acc_x,acc_y,acc_z,act_vx,act_vy,act_yr,capacity,vol,cur,power
940216147,0.63477,2.223,116.944,-0.00991616,0.0348584,0.957278,-0.0947392,-0.0262978,0.021908,-0.0433803,0.0147584,0.0197818,0,3.3,0,7619,45.958,25.986,11942.6
940316485,0.63477,2.223,116.942,-0.00905244,0.0345806,0.957365,-0.0969387,-0.0280755,0.0162727,-0.107184,0.0438729,-0.0346076,0,3.3,0,7619,45.958,25.986,11942.6
940416853,0.63477,2.223,116.939,-0.00761615,0.0336184,0.956635,-0.0968304,-0.0283128,0.0187552,-0.0530493,0.0545382,0.101761,0,3.3,0,7619,45.958,25.986,11942.6
940517218,0.63477,2.223,116.931,0.106809,0.0248273,0.958808,-0.0986925,-0.023449,0.0624739,0.0101133,0.246938,0.415403,0,3.3,0,7619,45.958,25.986,11942.6
940617528,0.63477,2.223,116.925,0.269399,0.0151521,0.961084,-0.231285,0.0956291,0.0248337,0.144205,2.11884,-0.342045,0,3.3,0,7619,45.958,25.986,11942.6
940717900,0.63477,2.223,116.917,0.374145,0.0148061,0.961173,-0.475536,0.306064,-0.0349756,0.207737,3.16788,1.1457,0,3.3,0,7619,45.958,25.986,11942.6
940818225,0.63477,2.223,116.908,0.428347,0.0195727,0.961865,-0.810418,0.57777,-0.0296558,0.215058,3.87751,2.03671,0,3.3,0,7619,45.958,25.986,11942.6
940918570,0.63477,2.223,116.902,0.432481,0.0249048,0.962008,-1.19295,0.862883,-0.0156344,0.0874589,4.21661,2.22711,0,3.3,0,7619,45.949,25.932,11915.5
941018981,0.63477,2.223,116.896,0.378887,0.0293417,0.961877,-1.56474,1.14217,0.021063,0.074151,4.02325,2.04445,0,3.3,0,7619,45.949,25.932,11915.5
941119395,0.634769,2.223,116.897,0.305674,0.033405,0.962,-1.86738,1.36823,0.0589146,0.0558162,3.30364,1.38712,0,3.3,0,7619,45.949,25.932,11915.5
941219799,0.634769,2.223,116.899,0.235784,0.0371932,0.961822,-2.09508,1.5327,0.0707502,-0.0199825,2.58054,0.636577,0,3.3,0,7619,45.949,25.932,11915.5
941321602,0.634769,2.223,116.906,0.178922,0.0392022,0.961492,-2.25696,1.65292,0.0681291,-0.0128244,1.82772,0.323039,0,3.3,0,7619,45.949,25.932,11915.5
941421978,0.634769,2.223,116.923,0.140265,0.0406401,0.961365,-2.37958,1.74019,0.0721985,-0.0434641,1.3103,0.231323,0,3.3,0,7619,45.949,25.932,11915.5
941522318,0.634769,2.223,116.951,0.112556,0.0411459,0.961223,-2.4714,1.80507,0.0736044,-0.0946144,0.999911,-0.102744,0,3.3,0,7619,45.949,25.932,11915.5
941622694,0.634769,2.223,116.976,0.0902567,0.0413249,0.961032,-2.53717,1.8517,0.0661297,-0.0234918,0.706938,-0.184645,0,3.3,0,7619,45.949,25.932,11915.5
941723033,0.634769,2.223,116.999,0.0728087,0.0418729,0.961227,-2.59204,1.88344,0.0497782,-0.112977,0.561871,-0.190958,0,3.3,0,7619,45.949,25.932,11915.5
941827240,0.634769,2.223,117.012,0.0613897,0.0387564,0.961021,-2.63412,1.90906,0.0432009,-0.0446938,0.479045,-0.0829301,0,3.3,0,7619,45.949,25.932,11915.5
941930666,0.634769,2.223,117.018,0.0530899,0.034491,0.960477,-2.66473,1.92931,0.0241784,-0.0234417,0.371505,-0.265373,0,3.3,0,7619,45.938,26.167,12020.6
942031041,0.634769,2.223,117.013,0.0484865,0.0311492,0.960152,-2.6868,1.93781,0.00556252,-0.0707623,0.262195,-0.0827716,0,3.3,0,7619,45.938,26.167,12020.6
942131389,0.634769,2.223,117.003,0.0453241,0.0296404,0.9596,-2.69489,1.95986,-0.00803491,0.118325,0.229729,0.0350398,0,3.3,0,7619,45.938,26.167,12020.6
942231822,0.634769,2.223,116.987,0.0443519,0.0308025,0.959155,-2.6961,1.97244,-0.00910257,0.0486819,0.172749,0.015959,0,-1.1,0,7619,45.938,26.167,12020.6
942332191,0.634769,2.223,116.976,0.0287303,0.0335603,0.95993,-2.7014,1.98832,-0.0205815,0.0639125,0.204101,0.0633694,0,-1.1,0,7619,45.938,26.167,12020.6
942432474,0.634769,2.223,116.977,-0.14733,0.0318295,0.954823,-2.68885,1.98136,0.0205432,-0.0126697,-0.292792,0.320515,0,-1.1,0,7619,45.938,26.167,12020.6
942532771,0.634769,2.223,116.977,-0.314099,0.0282115,0.951987,-2.48123,1.84477,0.0239705,0.063326,-2.49213,0.415234,0,-1.1,0,7619,45.938,26.167,12020.6
942634172,0.634769,2.223,116.989,-0.419877,0.024308,0.952841,-2.15391,1.62572,-0.0167202,0.0602995,-3.73016,1.12531,0,-1.1,0,7619,45.938,26.167,12020.6
942738234,0.634769,2.223,116.986,-0.477123,0.020186,0.955394,-1.64421,1.29119,-0.0553203,0.227203,-4.42641,2.37761,0,-1.1,0,7619,45.938,26.167,12020.6
942838616,0.634769,2.223,116.981,-0.486885,0.0260132,0.954619,-1.16477,0.997337,-0.0452067,0.211247,-4.62203,2.59198,0,-1.1,0,7619,45.938,26.167,12020.6
942939018,0.634769,2.223,116.966,-0.468972,0.0361004,0.953381,-0.709696,0.679259,-0.0501373,-0.0103771,-4.71916,2.34161,0,-1.1,0,7619,45.895,27.722,12723
943039371,0.634769,2.223,116.95,-0.399761,0.0410247,0.953787,-0.292299,0.369829,-0.0397634,-0.182126,-4.15983,2.50341,0,-1.1,0,7619,45.895,27.722,12723
943139708,0.634769,2.223,116.947,-0.317613,0.045261,0.953239,0.0387293,0.108418,-0.00851965,-0.186075,-3.57084,1.34832,0,-1.1,0,7619,45.895,27.722,12723
943240085,0.634769,2.223,116.942,-0.235138,0.0515278,0.951348,0.292932,-0.0846125,-0.00386553,-0.194482,-2.6339,0.869186,0,-1.1,0,7619,45.895,27.722,12723
943341334,0.634769,2.223,116.945,-0.167218,0.0540449,0.950516,0.467417,-0.238648,0.000711985,-0.286666,-1.89671,0.368106,0,-1.1,0,7619,45.895,27.722,12723
943441747,0.634769,2.223,116.951,-0.11352,0.0544721,0.950481,0.587496,-0.348704,0.0112366,-0.258003,-1.29372,0.20788,0,-1.1,0,7619,45.895,27.722,12723
943542119,0.634769,2.223,116.962,-0.078387,0.0529754,0.951195,0.663358,-0.433343,0.0169089,-0.268972,-0.800248,0.121924,0,-1.1,0,7619,45.895,27.722,12723
943642469,0.634769,2.223,116.971,-0.0553553,0.0503259,0.951789,0.715825,-0.487308,0.0234622,-0.183309,-0.464674,0.0794029,0,-1.1,0,7619,45.895,27.722,12723
943742832,0.634769,2.223,116.975,-0.0425861,0.0472849,0.952407,0.743906,-0.525881,0.0228722,-0.242413,-0.260794,-0.170085,0,-1.1,0,7619,45.895,27.722,12723
943843191,0.634769,2.223,116.981,-0.036829,0.0439067,0.953039,0.760502,-0.56036,0.0129881,-0.21877,-0.162709,0.0666549,0,-1.1,0,7619,45.895,27.722,12723
943945082,0.634769,2.223,116.979,-0.0328926,0.040111,0.953347,0.774996,-0.586433,0.00702929,-0.205807,-0.167662,-0.00831808,0,-1.1,0,7619,45.906,27.552,12648
944050054,0.634769,2.223,116.969,-0.0312122,0.0372847,0.953774,0.784195,-0.59678,0.00604315,-0.0644885,-0.0849294,0.0436308,0,-1.1,0,7619,45.906,27.552,12648
944150433,0.634769,2.223,116.956,-0.032793,0.0360008,0.954084,0.779964,-0.604719,-0.00137203,-0.130266,-0.032528,0.053691,0,-1.1,0,7619,45.906,27.552,12648
944250852,0.634769,2.223,116.951,-0.0347084,0.0339278,0.954084,0.780287,-0.608176,-0.00409828,-0.069932,-0.103827,0.200239,0,-3.5,0,7619,45.906,27.552,12648
944351215,0.634769,2.223,116.954,-0.0507614,0.0309598,0.955771,0.788144,-0.614703,0.00898569,-0.0149671,-0.136823,0.189893,0,-3.5,0,7619,45.906,27.552,12648
944451586,0.634769,2.223,116.96,-0.168848,0.0274338,0.952252,0.809604,-0.626301,0.0478764,0.0245685,-0.54455,0.147453,0,-3.5,0,7619,45.906,27.552,12648
944551952,0.634769,2.223,116.964,-0.283119,0.0266122,0.949778,0.941382,-0.70773,0.0217537,0.0436362,-1.72971,0.289541,0,-3.5,0,7619,45.906,27.552,12648
944652334,0.634769,2.223,116.974,-0.359206,0.0282167,0.94808,1.16225,-0.863646,0.00714604,-0.0426168,-2.74583,0.937374,0,-3.5,0,7619,45.906,27.552,12648
944752729,0.634769,2.223,116.981,-0.381977,0.0288353,0.947857,1.51089,-1.11027,0.0103998,-0.020425,-3.41374,1.47602,0,-3.5,0,7619,45.906,27.552,12648
944853061,0.634769,2.223,116.975,-0.350676,0.0284683,0.948719,1.78531,-1.3066,0.0122738,-0.0560569,-3.12465,1.15591,0,-3.5,0,7619,45.906,27.552,12648
944953417,0.634769,2.223,116.966,-0.298903,0.0273578,0.9497,2.02415,-1.46012,0.0173422,0.170861,-2.63256,0.888694,0,-3.5,0,7619,45.906,27.552,12648
945053747,0.634769,2.223,116.96,-0.247412,0.0283659,0.950313,2.2051,-1.58575,0.02754,-0.028242,-2.06661,0.712077,0,-3.5,0,7619,45.906,27.552,12648
945154071,0.634769,2.223,116.965,-0.205449,0.0268383,0.951714,2.34809,-1.68563,0.0209825,-0.0423745,-1.68248,0.291467,0,-3.5,0,7619,45.906,27.552,12648
945254366,0.634769,2.223,116.964,-0.173115,0.0242806,0.953145,2.461,-1.75663,0.0223655,-0.0106706,-1.27073,0.18552,0,-3.5,0,7619,45.906,27.552,12648
945354740,0.634769,2.223,116.963,-0.148824,0.0239556,0.954172,2.54912,-1.81298,0.023269,-0.026877,-0.972627,0.0927817,0,-3.5,0,7619,45.906,27.552,12648
945455080,0.634769,2.223,116.978,-0.128595,0.0234911,0.955047,2.62434,-1.85268,0.0271726,0.0847836,-0.738451,0.171519,0,-3.5,0,7619,45.906,27.552,12648
945555345,0.634769,2.223,116.997,-0.115226,0.022936,0.955803,2.68769,-1.87808,0.0308968,0.133126,-0.58947,-0.00291302,0,-3.5,0,7619,45.899,25.884,11880.5
945655616,0.634769,2.223,117.007,-0.107457,0.0246267,0.95597,2.74037,-1.89433,0.0205362,0.0798179,-0.491584,-0.175914,0,-3.5,0,7619,45.899,25.884,11880.5
945755871,0.634769,2.223,117.009,-0.105035,0.0261259,0.956465,2.78552,-1.90906,0.00353275,0.123527,-0.41499,-0.0447141,0,-3.5,0,7619,45.899,25.884,11880.5
945856170,0.63477,2.223,117.012,-0.103414,0.0277697,0.956347,2.83207,-1.92083,-0.00247591,0.156272,-0.442377,0.241312,0,-3.5,0,7619,45.899,25.884,11880.5
945956446,0.63477,2.223,117.018,-0.0999415,0.0288523,0.955798,2.87698,-1.9303,-0.0083342,0.129349,-0.433785,-0.107202,0,-3.5,0,7619,45.899,25.884,11880.5
946056804,0.63477,2.223,117.012,-0.0934302,0.0312011,0.955347,2.91169,-1.93443,-0.0143062,0.117624,-0.297631,0.0850762,0,-3.5,0,7619,45.899,25.884,11880.5
946157124,0.63477,2.223,117.006,-0.084824,0.034549,0.955038,2.93828,-1.94309,-0.00764109,0.0359396,-0.251705,0.00885864,0,-3.5,0,7619,45.899,25.884,11880.5
946257412,0.63477,2.223,117.003,-0.0795656,0.0391265,0.954316,2.95196,-1.95068,-0.00610891,-0.030629,-0.193752,0.0885873,0,-2.4,0,7619,45.899,25.884,11880.5
946357675,0.63477,2.223,117.002,-0.0581773,0.0405087,0.952516,2.95851,-1.96051,-0.0144522,-0.125739,-0.244542,0.239013,0,-2.4,0,7619,45.899,25.884,11880.5
946458051,0.63477,2.223,117.005,0.0108578,0.038853,0.955799,2.93392,-1.94572,0.012836,-0.0334476,0.376571,0.205891,0,-2.4,0,7619,45.899,25.884,11880.5
946558405,0.63477,2.223,117.007,0.0659483,0.0389578,0.957558,2.8528,-1.88485,-0.000529031,-0.0119425,1.0242,-0.164102,0,-2.4,0,7574,45.892,27.458,12601
946658757,0.63477,2.223,117.015,0.0957591,0.0395503,0.957435,2.73547,-1.78746,-0.00669188,0.0916456,1.52265,0.121204,0,-2.4,0,7574,45.892,27.458,12601
946759089,0.63477,2.223,117.022,0.0951568,0.0412866,0.956349,2.5972,-1.69166,-0.00372979,-0.059134,1.56613,0.00472125,0,-2.4,0,7574,45.892,27.458,12601
946859419,0.63477,2.223,117.026,0.0737731,0.0411163,0.955688,2.47129,-1.60111,-0.0129522,-0.0150715,1.45067,-0.0494549,0,-2.4,0,7574,45.892,27.458,12601
946961073,0.63477,2.223,117.026,0.0465414,0.0412226,0.955161,2.36683,-1.52905,-0.031397,-0.0154898,1.19985,0.152105,0,-2.4,0,7574,45.892,27.458,12601
947061540,0.63477,2.223,117.024,0.0179461,0.0436765,0.954966,2.28851,-1.46725,-0.0172251,0.0350163,0.879798,0.0412512,0,-2.4,0,7574,45.892,27.458,12601
947163448,0.63477,2.223,117.022,-0.00586786,0.0480752,0.955379,2.22901,-1.42192,-0.0208536,0.0211786,0.632142,0.0169149,0,-2.4,0,7574,45.892,27.458,12601
947263811,0.63477,2.223,117.021,-0.0264194,0.0518521,0.955471,2.18882,-1.40036,-0.0178424,-0.0966462,0.377244,0.0889992,0,-2.4,0,7574,45.892,27.458,12601
947364198,0.63477,2.223,117.026,-0.0401299,0.05406,0.955197,2.16305,-1.39618,-0.0143576,-0.116847,0.147011,-0.135743,0,-2.4,0,7574,45.892,27.458,12601
947464555,0.63477,2.223,117.022,-0.0489694,0.0544347,0.954355,2.14162,-1.39969,-0.0147476,-0.165844,0.0895117,0.139165,0,-2.4,0,7574,45.892,27.458,12601
947564908,0.63477,2.223,117.023,-0.0539198,0.0522094,0.953894,2.1269,-1.41229,-0.00987201,-0.222554,0.000650242,-0.0875921,0,-2.4,0,7574,45.898,26.654,12233.7
947665273,0.63477,2.223,117.023,-0.0559895,0.0475678,0.954031,2.11925,-1.43049,-0.0159107,-0.197697,-0.025661,-0.152832,0,-2.4,0,7574,45.898,26.654,12233.7
947765643,0.63477,2.223,117.027,-0.0568554,0.0429296,0.954293,2.11645,-1.43857,-0.00845063,-0.134084,-0.0404214,-0.0962815,0,-2.4,0,7574,45.898,26.654,12233.7
947866000,0.63477,2.223,117.03,-0.0566133,0.0389773,0.954186,2.1184,-1.44509,-0.0115472,-0.0629661,-0.0440657,-0.000267863,0,-2.4,0,7574,45.898,26.654,12233.7
947966360,0.63477,2.223,117.03,-0.0558407,0.0366447,0.954193,2.12044,-1.44752,-0.00889975,-0.0364976,0.00422252,-0.113878,0,-2.4,0,7574,45.898,26.654,12233.7
948066712,0.63477,2.223,117.037,-0.0560468,0.0348945,0.954233,2.12196,-1.44949,-0.010979,-0.0233573,-0.00268481,0.0845167,0,-2.4,0,7574,45.898,26.654,12233.7
948167064,0.63477,2.223,117.047,-0.0547234,0.0339019,0.9543,2.1265,-1.44891,-0.00369381,0.0232546,0.0387778,-0.077186,0,-2.4,0,7574,45.898,26.654,12233.7
948267494,0.63477,2.223,117.052,-0.0563248,0.0343165,0.954502,2.12861,-1.45054,-0.00774222,-0.0418095,0.0655902,0.136643,0,4.2,0,7574,45.898,26.654,12233.7
948367867,0.634771,2.223,117.058,-0.0391133,0.0326806,0.953715,2.132,-1.44604,-0.00840289,0.0255415,0.0494293,-0.065727,0,4.2,0,7574,45.898,26.654,12233.7
948469801,0.634771,2.223,117.066,0.133326,0.0226821,0.958036,2.12128,-1.44104,0.0373304,0.00924183,0.434476,0.321665,0,4.2,0,7574,45.898,26.654,12233.7
948575803,0.634771,2.223,117.085,0.311155,0.0158723,0.960093,1.89758,-1.25071,-0.00977954,0.220755,2.93941,-0.0145421,0,4.2,0,7529,45.918,25.937,11909.8
948678270,0.634771,2.223,117.097,0.42006,0.0139197,0.959127,1.57818,-1.00125,-0.0672483,0.151135,4.01116,1.25931,0,4.2,0,7529,45.918,25.937,11909.8
948778656,0.634771,2.223,117.104,0.460871,0.015365,0.958504,1.17992,-0.689925,-0.0863575,0.204506,4.69111,2.08319,0,4.2,0,7529,45.918,25.937,11909.8
948879079,0.634771,2.223,117.099,0.461998,0.0178846,0.958004,0.765038,-0.355609,-0.094877,0.282143,4.81016,2.20695,0,4.2,0,7529,45.918,25.937,11909.8
948979600,0.634771,2.223,117.094,0.446499,0.0233753,0.959204,0.346333,-0.0350571,-0.0811595,0.128245,4.68236,2.44964,0,4.2,0,7529,45.918,25.937,11909.8
949079978,0.634771,2.223,117.08,0.429838,0.0290286,0.961257,-0.0607232,0.274375,-0.0689818,0.140602,4.53821,2.02888,0,4.2,0,7529,45.918,25.937,11909.8
949180380,0.634771,2.223,117.062,0.410698,0.0350481,0.963768,-0.441198,0.560894,-0.0631381,0.0735037,4.17278,2.08053,0,4.2,0,7529,45.918,25.937,11909.8
949280729,0.634771,2.223,117.051,0.392471,0.039294,0.965462,-0.812785,0.824575,-0.049252,0.0213874,3.99645,1.82107,0,4.2,0,7529,45.918,25.937,11909.8
949381087,0.634771,2.223,117.043,0.376961,0.044141,0.967014,-1.16875,1.07385,-0.0368245,-0.00909682,3.75128,1.77984,0,4.2,0,7529,45.918,25.937,11909.8
949481403,0.634771,2.223,117.041,0.365269,0.0483533,0.968614,-1.49693,1.30061,-0.0246831,-0.0574239,3.44076,1.51496,0,4.2,0,7529,45.918,25.937,11909.8
949581698,0.634771,2.223,117.03,0.346047,0.052732,0.969871,-1.81604,1.5106,-0.0260567,-0.108479,3.36127,1.34304,0,4.2,0,7529,45.902,25.922,11898.7
949682049,0.634771,2.223,117.022,0.302454,0.0544587,0.969407,-2.11141,1.70546,-0.0207792,-0.138865,3.04203,1.18418,0,4.2,0,7529,45.902,25.922,11898.7
949782395,0.63477,2.223,117.019,0.255641,0.0560316,0.968932,-2.35778,1.85818,-0.0012027,-0.18978,2.52238,0.86669,0,4.2,0,7529,45.902,25.922,11898.7
949882756,0.63477,2.223,117.016,0.213397,0.0552992,0.968215,-2.56315,1.98146,0.00125031,-0.202594,2.15038,0.649309,0,4.2,0,7529,45.902,25.922,11898.7
949983098,0.63477,2.223,117.012,0.173427,0.0545006,0.966965,-2.72847,2.07994,0.00444004,-0.148429,1.75893,0.341139,0,4.2,0,7529,45.902,25.922,11898.7
950083381,0.63477,2.223,117.018,0.139081,0.0516613,0.96549,-2.85074,2.1537,0.0130452,-0.109147,1.28313,0.326119,0,4.2,0,7529,45.902,25.922,11898.7
950183682,0.63477,2.223,117.03,0.116023,0.0496294,0.964403,-2.94252,2.2049,0.0254128,-0.116245,0.999352,0.100007,0,4.2,0,7529,45.902,25.922,11898.7
950284111,0.63477,2.223,117.035,0.101133,0.0485209,0.963459,-3.00556,2.24244,0.0184345,-0.110723,0.743792,0.0554222,0,4.8,0,7529,45.902,25.922,11898.7
950384475,0.63477,2.223,117.036,0.101959,0.0457795,0.962289,-3.05742,2.28097,0.0139413,-0.0182485,0.692352,0.211165,0,4.8,0,7529,45.902,25.922,11898.7
950484816,0.63477,2.223,117.039,0.139181,0.040333,0.963071,-3.10734,2.32135,0.0306198,0.0123253,0.878436,-0.171127,0,4.8,0,7529,45.902,25.922,11898.7
950585196,0.63477,2.223,117.044,0.166756,0.0413454,0.963519,-3.17712,2.38566,-0.0212038,0.0382304,1.15054,-0.369203,0,4.8,0,7529,45.873,26.472,12143.5
950685556,0.63477,2.223,117.042,0.179512,0.0430722,0.963052,-3.26427,2.46578,-0.0205728,0.136968,1.343,0.327403,0,4.8,0,7529,45.873,26.472,12143.5
950785870,0.63477,2.223,117.029,0.178082,0.0473169,0.962709,-3.37651,2.53017,-0.0465759,-0.196007,1.49871,0.0617808,0,4.8,0,7529,45.873,26.472,12143.5
950886243,0.63477,2.223,117.02,0.165264,0.0475732,0.962507,-3.47605,2.60695,-0.0334407,-0.0320886,1.33506,0.496533,0,4.8,0,7529,45.873,26.472,12143.5
950986634,0.63477,2.223,117.011,0.154164,0.0509013,0.962884,-3.55843,2.66947,-0.00909287,-0.0502246,1.17086,0.282921,0,4.8,0,7529,45.873,26.472,12143.5
951086953,0.63477,2.223,117.004,0.142972,0.0545181,0.963848,-3.63035,2.71815,-0.017178,-0.0565259,1.04492,0.32719,0,4.8,0,7529,45.873,26.472,12143.5
951187312,0.63477,2.223,117.002,0.128536,0.0556025,0.963784,-3.70337,2.76143,-0.00744859,-0.100756,0.931095,0.445999,0,4.8,0,7529,45.873,26.472,12143.5
951287674,0.63477,2.223,117.003,0.114578,0.0557816,0.963358,-3.76302,2.78811,0.00427386,-0.170009,0.77211,0.129865,0,4.8,0,7529,45.873,26.472,12143.5
951388058,0.63477,2.223,117.002,0.105304,0.0547593,0.963061,-3.81094,2.81373,-0.00394308,-0.13103,0.778536,0.134663,0,4.8,0,7529,45.873,26.472,12143.5
951488407,0.63477,2.223,116.999,0.0977033,0.0521504,0.962713,-3.85045,2.83283,0.00872364,-0.135863,0.574388,0.292145,0,4.8,0,7529,45.873,26.472,12143.5
951588766,0.63477,2.223,116.994,0.0934216,0.0531038,0.963179,-3.87781,2.8479,0.00695897,-0.0984338,0.468984,-0.191635,0,4.8,0,7529,45.827,30.093,13790.7
951689073,0.634769,2.223,116.992,0.0883185,0.0541456,0.963256,-3.90288,2.86335,-0.0027402,-0.164872,0.445872,0.051416,0,4.8,0,7529,45.827,30.093,13790.7
951789433,0.634769,2.223,116.993,0.0852482,0.0543411,0.963656,-3.93051,2.86814,0.00522318,-0.183198,0.428634,0.0680046,0,4.8,0,7529,45.827,30.093,13790.7
951889789,0.634769,2.223,117,0.0801255,0.0538177,0.963979,-3.95426,2.87852,0.0110535,-0.0862928,0.40981,0.156077,0,4.8,0,7529,45.827,30.093,13790.7
951990146,0.634769,2.223,117.011,0.0790827,0.055923,0.96365,-3.9719,2.87855,0.0171404,-0.171415,0.342269,-0.268895,0,4.8,0,7529,45.827,30.093,13790.7
952090481,0.634769,2.223,117.022,0.0817457,0.0573877,0.963414,-3.99075,2.87493,-0.010621,-0.188986,0.318298,-0.234247,0,4.8,0,7529,45.827,30.093,13790.7
952190844,0.634769,2.223,117.033,0.083493,0.0529828,0.96153,-4.00511,2.87906,-0.0193486,-0.123987,0.326954,-0.128592,0,4.8,0,7529,45.827,30.093,13790.7
952291262,0.634769,2.223,117.039,0.0790662,0.0437464,0.960075,-4.02232,2.89507,-0.00397878,-0.00673619,0.354772,0.107379,0,4.1,0,7529,45.827,30.093,13790.7
952391637,0.634769,2.223,117.038,0.0629305,0.0448196,0.961279,-4.03206,2.909,0.00636419,-0.0446238,0.259475,0.0923685,0,4.1,0,7529,45.827,30.093,13790.7
952492034,0.634769,2.223,117.038,0.00812135,0.0456112,0.959251,-4.03045,2.914,0.0357602,0.00665692,-0.064208,-0.171703,0,4.1,0,7529,45.827,30.093,13790.7
952592408,0.634769,2.223,117.041,-0.0187548,0.0486948,0.958249,-3.97043,2.87831,0.00391698,-0.0788015,-0.530382,-0.453344,0,4.1,0,7529,45.827,30.093,13790.7
952692712,0.634769,2.223,117.04,-0.0313425,0.0481481,0.958333,-3.89329,2.81747,-0.0183688,-0.0915712,-0.754608,0.0639645,0,4.1,0,7529,45.869,27.158,12457.1
952793009,0.634769,2.223,117.043,-0.0279298,0.0472149,0.958489,-3.82771,2.77287,-0.0161663,-0.0651248,-0.650061,0.177996,0,4.1,0,7529,45.869,27.158,12457.1
952893322,0.634769,2.223,117.039,-0.0273562,0.042999,0.958778,-3.78139,2.73175,-0.0192428,-0.127537,-0.492947,0.06282,0,4.1,0,7529,45.869,27.158,12457.1
952993686,0.634769,2.223,117.029,-0.024715,0.0406095,0.959024,-3.72287,2.69912,-0.0150889,0.048741,-0.534615,0.0360436,0,4.1,0,7529,45.869,27.158,12457.1
953094056,0.634769,2.223,117.025,-0.0183364,0.0524665,0.96033,-3.66703,2.65703,-0.0423969,-0.134157,-0.553137,-0.215143,0,4.1,0,7529,45.869,27.158,12457.1
953194425,0.634769,2.223,117.02,-0.011496,0.0650097,0.96068,-3.6279,2.59573,-0.0511651,-0.31272,-0.477135,0.208035,0,4.1,0,7529,45.869,27.158,12457.1
953294779,0.634769,2.223,117.017,0.000490052,0.0669491,0.960862,-3.60509,2.53172,-0.0358436,-0.422911,-0.416254,-0.0105699,0,4.1,0,7529,45.869,27.158,12457.1
953395132,0.634769,2.223,117.012,0.0119783,0.0641876,0.96119,-3.58882,2.4918,-0.0503852,-0.308714,-0.205275,-0.0607482,0,4.1,0,7529,45.869,27.158,12457.1
953495498,0.634768,2.223,117.014,0.0265955,0.0523077,0.96062,-3.57834,2.44944,-0.0338984,-0.276799,-0.200817,0.0951981,0,4.1,0,7529,45.869,27.158,12457.1
953595867,0.634768,2.223,117.015,0.0387838,0.0381694,0.959833,-3.56063,2.44905,-0.0370894,0.065712,-0.0288879,0.104898,0,4.1,0,7529,45.869,27.158,12457.1
953696267,0.634768,2.223,117.009,0.0464617,0.0326847,0.959234,-3.55487,2.45638,-0.0262423,0.0458487,0.10173,-0.0481964,0,4.1,0,7529,45.924,25.169,11558.6
953796607,0.634768,2.223,117.003,0.04941,0.0285738,0.958933,-3.54748,2.46126,-0.0130705,0.0572075,0.10466,0.110663,0,4.1,0,7529,45.924,25.169,11558.6
953896921,0.634768,2.223,117.009,0.0512016,0.0286528,0.958562,-3.54452,2.47094,0.00168931,0.10897,0.110457,-0.0557809,0,4.1,0,7529,45.924,25.169,11558.6
953997398,0.634768,2.223,117.017,0.0514028,0.0312216,0.958939,-3.52899,2.48569,-0.00559182,0.183556,0.0605065,0.0791108,0,4.1,0,7529,45.924,25.169,11558.6
954097780,0.634768,2.223,117.025,0.0541094,0.0393742,0.958817,-3.52191,2.48511,-0.00650455,0.0121846,0.0149706,0.224961,0,4.1,0,7529,45.924,25.169,11558.6
954198137,0.634768,2.223,117.035,0.0535582,0.0442255,0.959282,-3.527,2.49499,0.010972,-0.0175526,0.126598,-0.0996432,0,4.1,0,7529,45.924,25.169,11558.6
954298538,0.634768,2.223,117.05,0.0542899,0.0456771,0.959431,-3.52707,2.49944,0.0108382,0.0139705,0.0671609,-0.258335,0,3.6,0,7529,45.924,25.169,11558.6
954399005,0.634768,2.223,117.064,0.0397069,0.0462454,0.959256,-3.53261,2.499,0.00352567,-0.0680225,0.107828,0.223331,0,3.6,0,7529,45.924,25.169,11558.6
954500888,0.634768,2.223,117.081,-0.00821953,0.0420405,0.957492,-3.51435,2.47989,0.0203402,-0.0505772,-0.329127,0.0909699,0,3.6,0,7529,45.924,25.169,11558.6
954602368,0.634768,2.223,117.108,-0.0220858,0.0434363,0.957406,-3.45732,2.45129,0.00700328,-0.00546257,-0.617587,-0.658214,0,3.6,0,7529,45.924,25.169,11558.6
954708354,0.634768,2.223,117.116,-0.0273312,0.0458872,0.957652,-3.41336,2.39856,-0.008401,-0.256508,-0.594773,-0.0439317,0,3.6,0,7485,45.974,23.254,10690.8
954812642,0.634768,2.223,117.114,-0.0223663,0.0453385,0.958428,-3.34709,2.35239,-0.0374232,-0.0359796,-0.583831,-0.299786,0,3.6,0,7485,45.974,23.254,10690.8
954913017,0.634768,2.223,117.105,-0.0128097,0.0421133,0.957637,-3.29785,2.3146,-0.046049,-0.0422378,-0.550232,0.145006,0,3.6,0,7485,45.974,23.254,10690.8
955013408,0.634768,2.223,117.094,-0.000239669,0.0379748,0.958404,-3.26456,2.3051,-0.0568876,0.0622025,-0.384425,-0.18241,0,3.6,0,7485,45.974,23.254,10690.8
955113782,0.634768,2.223,117.079,0.0101712,0.0358693,0.95803,-3.22575,2.2878,-0.0661911,0.0639919,-0.268231,0.115052,0,3.6,0,7485,45.974,23.254,10690.8
955214124,0.634768,2.223,117.059,0.0137055,0.0351969,0.957796,-3.20679,2.28818,-0.0716497,0.089523,-0.121979,-0.0209039,0,3.6,0,7485,45.974,23.254,10690.8
955314423,0.634768,2.223,117.048,0.0167249,0.0384818,0.957893,-3.18607,2.27909,-0.0670042,0.0207983,-0.20824,0.225459,0,3.6,0,7485,45.974,23.254,10690.8
955414780,0.634767,2.223,117.043,0.0226584,0.0407605,0.957751,-3.16593,2.26416,-0.0597199,-0.0629443,-0.196716,-0.015736,0,3.6,0,7485,45.974,23.254,10690.8
955515136,0.634767,2.223,117.042,0.0269586,0.0411682,0.957664,-3.15636,2.254,-0.0524452,-0.0595966,-0.101081,0.0178844,0,3.6,0,7485,45.974,23.254,10690.8
955615516,0.634767,2.223,117.045,0.0311998,0.0417596,0.957196,-3.14267,2.24631,-0.0386146,-0.0564143,-0.136949,0.0882454,0,3.6,0,7485,45.974,23.254,10690.8
955715891,0.634767,2.223,117.053,0.0357996,0.0403102,0.956998,-3.13495,2.24234,-0.0329935,0.00403743,-0.00805123,-0.0436791,0,3.6,0,7485,45.959,23.171,10649.2
955816289,0.634767,2.223,117.066,0.0336307,0.0414673,0.957296,-3.13112,2.25076,-0.023861,0.00651245,0.0734466,-0.0414769,0,3.6,0,7485,45.959,23.171,10649.2
955916692,0.634767,2.223,117.069,0.0309421,0.0427846,0.957378,-3.135,2.25418,-0.0266235,-0.0813022,0.0565469,0.0759824,0,3.6,0,7485,45.959,23.171,10649.2
956017047,0.634767,2.223,117.065,0.0311713,0.0440865,0.957651,-3.12811,2.25332,-0.0130334,-0.0199242,-0.00726291,-0.148714,0,3.6,0,7485,45.959,23.171,10649.2
956117379,0.634767,2.223,117.063,0.0311792,0.0462539,0.957765,-3.12554,2.25917,-0.0182378,-0.00381311,0.007916,-0.0148236,0,3.6,0,7485,45.959,23.171,10649.2
956217803,0.634767,2.223,117.058,0.0315944,0.0493391,0.958024,-3.12166,2.25688,-0.0295515,-0.100799,-0.0057419,-0.143225,0,3.6,0,7485,45.959,23.171,10649.2
956318306,0.634767,2.223,117.045,0.0317448,0.0490594,0.957916,-3.11832,2.25031,-0.0312613,-0.0860214,-0.016422,0.0445938,0,4.2,0,7485,45.959,23.171,10649.2
956418679,0.634767,2.223,117.041,0.0463825,0.0471212,0.957973,-3.11935,2.24757,-0.0100064,-0.0672735,-0.0604819,0.557457,0,4.2,0,7485,45.959,23.171,10649.2
956519455,0.634767,2.223,117.043,0.0856974,0.0429264,0.959103,-3.13545,2.25851,-0.0069533,-0.0485893,0.288074,-0.419687,0,4.2,0,7485,45.959,23.171,10649.2
956619822,0.634767,2.223,117.047,0.115155,0.043561,0.959411,-3.18055,2.29613,-0.0508426,-0.0502659,0.666457,0.0340747,0,4.2,0,7485,45.959,23.171,10649.2
956720220,0.634767,2.223,117.04,0.126888,0.048634,0.959383,-3.25583,2.34669,-0.0462062,-0.0469853,0.894299,0.21509,0,4.2,0,7485,45.976,23.079,10610.8
956820592,0.634767,2.223,117.032,0.119611,0.05508,0.959157,-3.33288,2.39399,-0.0477398,-0.07117,0.87363,0.276201,0,4.2,0,7485,45.976,23.079,10610.8
956920920,0.634767,2.223,117.03,0.105314,0.0592489,0.960185,-3.41039,2.43218,-0.0339179,-0.163178,0.808323,0.506759,0,4.2,0,7485,45.976,23.079,10610.8
957021269,0.634767,2.223,117.028,0.0878596,0.0547869,0.959988,-3.48074,2.45763,-0.0130766,-0.223617,0.662425,-0.0254093,0,4.2,0,7485,45.976,23.079,10610.8
957121626,0.634767,2.223,117.038,0.0734715,0.0487021,0.959803,-3.52429,2.47221,-0.0130123,-0.199124,0.440998,-0.00881097,0,4.2,0,7485,45.976,23.079,10610.8
957221980,0.634767,2.223,117.042,0.0631351,0.0441359,0.960027,-3.55829,2.48026,-0.0132129,-0.149515,0.340331,0.0510625,0,4.2,0,7485,45.976,23.079,10610.8
957322343,0.634767,2.223,117.045,0.056431,0.042582,0.959804,-3.59748,2.49047,-0.00474689,-0.215458,0.366018,-0.0375134,0,4.2,0,7485,45.976,23.079,10610.8
957422690,0.634766,2.223,117.05,0.0494544,0.0428691,0.959838,-3.61597,2.49873,-0.0130563,-0.107956,0.223676,-0.200755,0,4.2,0,7485,45.976,23.079,10610.8
957523042,0.634766,2.223,117.049,0.0398055,0.0417226,0.960517,-3.63877,2.4978,-0.0120986,-0.192264,0.173955,-0.0189586,0,4.2,0,7485,45.976,23.079,10610.8
957623458,0.634766,2.223,117.045,0.0314581,0.0447333,0.960781,-3.65906,2.49338,-0.0273809,-0.220517,0.136195,-0.0220145,0,4.2,0,7485,45.976,23.079,10610.8
957723821,0.634766,2.223,117.042,0.0252961,0.0450613,0.96121,-3.66575,2.47521,-0.0173544,-0.214338,-0.00987752,0.015676,0,4.2,0,7485,45.937,24.393,11205.4
957824207,0.634766,2.223,117.038,0.021938,0.0458438,0.96192,-3.67283,2.46006,-0.0267719,-0.243445,0.0174781,-0.0191571,0,4.2,0,7485,45.937,24.393,11205.4
957924582,0.634766,2.223,117.028,0.0198614,0.0452941,0.961575,-3.67867,2.44339,-0.0388973,-0.275131,-0.0194844,-0.191712,0,4.2,0,7485,45.937,24.393,11205.4
958024931,0.634766,2.223,117.013,0.0225644,0.0388084,0.961564,-3.685,2.42422,-0.0455895,-0.207131,-0.0107624,0.250964,0,4.2,0,7485,45.937,24.393,11205.4
958125294,0.634766,2.223,117.003,0.0268317,0.0321442,0.960092,-3.68774,2.41189,-0.0298104,-0.147341,-0.0286007,0.349317,0,4.2,0,7485,45.937,24.393,11205.4
958225649,0.634766,2.223,116.998,0.0293026,0.0246596,0.959483,-3.68587,2.41496,-0.0248269,-0.0551733,0.103364,-0.0211854,0,4.2,0,7485,45.937,24.393,11205.4
958326054,0.634766,2.223,116.992,0.0301742,0.0195156,0.958982,-3.68949,2.41513,-0.0209588,-0.0803244,0.0696406,0.0683987,0,2.7,0,7485,45.937,24.393,11205.4
958426410,0.634766,2.223,116.984,0.0187919,0.0195319,0.960478,-3.67557,2.43395,-0.00616904,0.157953,-0.0217119,0.1466,0,2.7,0,7485,45.937,24.393,11205.4
958526771,0.634766,2.223,116.99,-0.0769099,0.0295146,0.958273,-3.6541,2.43435,0.0336077,0.0491193,-0.260398,0.206431,0,2.7,0,7485,45.937,24.393,11205.4
958627115,0.634766,2.223,117.002,-0.164192,0.0406798,0.953934,-3.53747,2.35561,0.0287896,-0.0468661,-1.459,-0.120868,0,2.7,0,7485,45.937,24.393,11205.4
958727453,0.634766,2.223,117.017,-0.207932,0.0460225,0.95342,-3.37164,2.22023,0.00465758,-0.246614,-2.12201,-0.0565877,0,2.7,0,7485,45.937,24.393,11205.4
958827897,0.634766,2.223,117.023,-0.210697,0.0387966,0.955024,-3.18771,2.06589,-0.0109622,-0.214042,-2.24281,0.523416,0,2.7,0,7485,45.94,24.102,11072.5
958928292,0.634766,2.223,117.024,-0.187091,0.0336845,0.956177,-2.99746,1.9376,-0.0238951,-0.0131258,-2.15109,0.281885,0,2.7,0,7485,45.94,24.102,11072.5
959028677,0.634766,2.223,117.024,-0.150941,0.0215862,0.957964,-2.84277,1.81952,-0.0332518,-0.0999449,-1.77644,0.210762,0,2.7,0,7485,45.94,24.102,11072.5
959129057,0.634766,2.223,117.022,-0.115133,-0.00186328,0.96087,-2.7024,1.73871,-0.0458654,0.0769042,-1.43252,0.240747,0,2.7,0,7485,45.94,24.102,11072.5
959229427,0.634766,2.223,117.017,-0.0786151,-0.0191848,0.961212,-2.57529,1.70592,-0.0435524,0.411868,-1.04346,0.120896,0,2.7,0,7485,45.94,24.102,11072.5
959329794,0.634766,2.223,117.012,-0.0467811,-0.0146155,0.958659,-2.46185,1.69864,-0.025303,0.519662,-0.810444,-0.0321971,0,2.7,0,7485,45.94,24.102,11072.5
959430163,0.634765,2.223,117.012,-0.0238986,0.00265438,0.955774,-2.37658,1.6992,-0.0215701,0.3927,-0.52583,0.0626134,0,2.7,0,7485,45.94,24.102,11072.5
959530525,0.634765,2.223,117.02,-0.00275561,0.0211831,0.954514,-2.32419,1.69824,-0.00365456,0.198016,-0.295512,-0.0609508,0,2.7,0,7485,45.94,24.102,11072.5
959630838,0.634765,2.223,117.036,0.0152037,0.0339664,0.954642,-2.30101,1.68642,-0.00519936,-0.0466537,-0.078839,-0.039679,0,2.7,0,7485,45.94,24.102,11072.5
959731201,0.634765,2.223,117.045,0.0242257,0.0425185,0.954944,-2.2979,1.6888,-0.00622052,-0.0979232,0.0698431,-0.119239,0,2.7,0,7485,45.94,24.102,11072.5
959831578,0.634765,2.223,117.038,0.0255243,0.0445177,0.955311,-2.30674,1.68869,-0.00387624,-0.128822,0.155381,-0.22108,0,2.7,0,7485,45.96,23.762,10921
959931931,0.634765,2.223,117.021,0.0223081,0.0441244,0.95557,-2.30878,1.68575,-0.0175943,-0.13294,0.0517805,-0.0597483,0,2.7,0,7485,45.96,23.762,10921
960032281,0.634765,2.223,117.011,0.0203323,0.0430513,0.955627,-2.3055,1.67995,-0.0207755,-0.0944137,-0.0282336,-0.029765,0,2.7,0,7485,45.96,23.762,10921
960132567,0.634765,2.223,117.003,0.0197406,0.0434505,0.955346,-2.31838,1.68608,-0.0127743,-0.151654,0.136859,-0.232197,0,2.7,0,7485,45.96,23.762,10921
960232903,0.634765,2.223,116.99,0.016316,0.0440552,0.955043,-2.31881,1.687,-0.0215339,-0.106569,0.0292219,0.036688,0,2.7,0,7485,45.96,23.762,10921
960333307,0.634765,2.223,116.984,0.014629,0.0439462,0.955101,-2.32536,1.67828,-0.020929,-0.173907,-0.0468412,0.162752,0,-4,0,7485,45.96,23.762,10921
960433648,0.634765,2.223,116.982,-0.00246707,0.0428146,0.956448,-2.33423,1.67161,-0.0115877,-0.116476,0.00641052,0.467889,0,-4,0,7485,45.96,23.762,10921
960534034,0.634765,2.223,116.993,-0.151784,0.0308447,0.951264,-2.29718,1.64053,0.0321946,-0.0291369,-0.853116,0.224961,0,-4,0,7485,45.96,23.762,10921
960634403,0.634765,2.223,117.008,-0.296044,0.0200351,0.949774,-2.0921,1.50967,0.0225587,0.0508967,-2.55323,0.375755,0,-4,0,7485,45.96,23.762,10921
960734798,0.634765,2.223,117.016,-0.383492,0.0128766,0.952059,-1.7904,1.32086,-0.0240432,0.184863,-3.59464,0.924295,0,-4,0,7485,45.96,23.762,10921
960835168,0.634765,2.223,117.008,-0.426897,0.00757029,0.954996,-1.42274,1.09458,-0.037106,0.226364,-3.95297,1.87709,0,-4,0,7485,45.963,24.027,11043.5
960935476,0.634765,2.223,116.997,-0.436764,0.0087321,0.955432,-1.03153,0.84938,-0.0423281,0.227431,-4.13745,1.98571,0,-4,0,7485,45.963,24.027,11043.5
961035846,0.634765,2.223,116.974,-0.428775,0.0136505,0.953724,-0.647253,0.602533,-0.0372515,0.187155,-4.0169,1.99973,0,-4,0,7485,45.963,24.027,11043.5
961136232,0.634765,2.223,116.943,-0.414031,0.020024,0.951411,-0.263237,0.357668,-0.0384029,0.190276,-3.91318,2.0033,0,-4,0,7485,45.963,24.027,11043.5
961236578,0.634765,2.223,116.928,-0.39743,0.0289258,0.948399,0.0968002,0.112658,-0.0405022,0.069809,-3.68585,1.93439,0,-4,0,7485,45.963,24.027,11043.5
961336922,0.634765,2.223,116.923,-0.383246,0.0374015,0.945286,0.432118,-0.123035,-0.0157192,0.00166158,-3.54391,1.58649,0,-4,0,7485,45.963,24.027,11043.5
961437295,0.634765,2.223,116.925,-0.369867,0.0421302,0.944115,0.746651,-0.355208,-0.00470689,-0.0581531,-3.43225,1.34487,0,-4,0,7485,45.963,24.027,11043.5
961537649,0.634765,2.223,116.931,-0.35888,0.0437792,0.943532,1.04904,-0.580234,0.00904539,-0.099333,-3.18405,1.40107,0,-4,0,7485,45.963,24.027,11043.5
961637971,0.634765,2.223,116.944,-0.349812,0.0437169,0.944232,1.33321,-0.790304,0.0166828,-0.0579982,-3.0811,1.14959,0,-4,0,7485,45.963,24.027,11043.5
961738249,0.634765,2.223,116.961,-0.343925,0.0424767,0.945053,1.60144,-0.990984,0.0244562,-0.0605305,-2.93292,1.0656,0,-4,0,7485,45.963,24.027,11043.5
961838502,0.634765,2.223,116.978,-0.338291,0.0426897,0.945564,1.85956,-1.18091,0.0342087,-0.0734367,-2.84987,0.865164,0,-4,0,7485,45.913,24.84,11404.8
961938800,0.634765,2.223,116.991,-0.327284,0.0439167,0.9454,2.10525,-1.37215,0.0420423,-0.144244,-2.86095,0.717452,0,-4,0,7485,45.913,24.84,11404.8
962039169,0.634765,2.223,116.997,-0.294381,0.0446645,0.94521,2.33159,-1.54823,0.0362259,-0.168589,-2.55631,0.809038,0,-4,0,7485,45.913,24.84,11404.8
962139530,0.634765,2.223,117.014,-0.256222,0.0433582,0.946024,2.52454,-1.69428,0.0382127,-0.102415,-2.2032,0.566966,0,-4,0,7485,45.913,24.84,11404.8
962240160,0.634765,2.223,117.025,-0.21985,0.0393686,0.947625,2.67288,-1.81586,0.0389187,-0.17881,-1.78004,0.151911,0,-4,0,7485,45.913,24.84,11404.8
962340635,0.634765,2.223,117.035,-0.186243,0.0349867,0.949326,2.78875,-1.90413,0.0386652,-0.0541395,-1.42068,0.0572618,0,-4.4,0,7485,45.913,24.84,11404.8
962442279,0.634765,2.223,117.042,-0.178254,0.0313741,0.95042,2.88394,-1.96825,0.0296546,0.00110492,-0.992256,0.447843,0,-4.4,0,7485,45.913,24.84,11404.8
962542647,0.634765,2.223,117.053,-0.190663,0.0306912,0.9505,2.97239,-2.02645,0.0348213,-0.0116631,-1.20194,-0.155402,0,-4.4,0,7485,45.913,24.84,11404.8
962642990,0.634766,2.223,117.053,-0.193848,0.0308452,0.951438,3.06746,-2.086,-0.00780077,0.0156296,-1.18676,-0.0555557,0,-4.4,0,7485,45.913,24.84,11404.8
962743360,0.634766,2.223,117.043,-0.191609,0.0312678,0.951603,3.16821,-2.14585,-0.0173666,0.0865437,-1.19761,0.401348,0,-4.4,0,7485,45.913,24.84,11404.8
962843703,0.634766,2.223,117.036,-0.182674,0.034622,0.951901,3.25942,-2.19508,-0.020688,0.102939,-1.10875,0.144733,0,-4.4,0,7485,45.846,26.997,12377
962944136,0.634766,2.223,117.025,-0.172273,0.0384311,0.951404,3.33131,-2.23511,-0.0353954,0.0482511,-0.887155,0.14548,0,-4.4,0,7485,45.846,26.997,12377
963044494,0.634766,2.223,117.02,-0.16517,0.0407408,0.950972,3.39279,-2.27798,-0.0356124,-0.0661473,-0.865659,0.0785768,0,-4.4,0,7485,45.846,26.997,12377
963144821,0.634766,2.223,117.026,-0.156765,0.0412478,0.950789,3.44787,-2.32173,-0.0297761,-0.108218,-0.819961,0.19765,0,-4.4,0,7485,45.846,26.997,12377
963245137,0.634766,2.223,117.038,-0.148807,0.0416699,0.95078,3.49561,-2.35689,-0.0198066,-0.0476308,-0.686668,0.151434,0,-4.4,0,7485,45.846,26.997,12377
963345537,0.634766,2.223,117.049,-0.14407,0.0414237,0.950937,3.54056,-2.37962,-0.0211689,0.00765712,-0.633533,0.0725343,0,-4.4,0,7485,45.846,26.997,12377
963445903,0.634766,2.223,117.072,-0.142007,0.0420884,0.951045,3.57311,-2.40323,-0.014908,-0.0891533,-0.563004,-0.00710426,0,-4.4,0,7485,45.846,26.997,12377
963546211,0.634766,2.223,117.098,-0.140235,0.0466665,0.950409,3.61371,-2.43565,0.000437355,-0.0936905,-0.644811,-0.0240393,0,-4.4,0,7485,45.846,26.997,12377
963646524,0.634766,2.223,117.109,-0.134126,0.0472004,0.950612,3.63839,-2.46872,-0.00763204,-0.165764,-0.554115,-0.329581,0,-4.4,0,7485,45.846,26.997,12377
963746877,0.634766,2.223,117.117,-0.133294,0.0470801,0.950617,3.66973,-2.49643,-0.00834681,-0.127128,-0.513424,-0.0968539,0,-4.4,0,7485,45.846,26.997,12377
963847237,0.634766,2.223,117.128,-0.131412,0.0453104,0.951218,3.69721,-2.52157,-0.0281725,-0.117461,-0.475888,-0.0842939,0,-4.4,0,7485,45.76,29.271,13394.4
963947606,0.634766,2.223,117.134,-0.128885,0.0406218,0.952053,3.71635,-2.55529,-0.0320632,-0.236547,-0.403339,0.319595,0,-4.4,0,7485,45.76,29.271,13394.4
964047959,0.634766,2.223,117.128,-0.127338,0.0360984,0.952776,3.74264,-2.57498,-0.0451127,-0.026727,-0.422697,-0.013816,0,-4.4,0,7485,45.76,29.271,13394.4
964148319,0.634766,2.223,117.121,-0.120682,0.0342247,0.952794,3.78093,-2.59009,-0.0449124,0.0412952,-0.46399,0.21717,0,-4.4,0,7485,45.76,29.271,13394.4
964248690,0.634766,2.223,117.118,-0.113863,0.032105,0.952617,3.81056,-2.61376,-0.033192,-0.0292671,-0.398618,0.153047,0,-4.4,0,7485,45.76,29.271,13394.4
964349034,0.634766,2.223,117.119,-0.110386,0.03486,0.951588,3.83565,-2.61638,-0.0431404,0.0145581,-0.265273,-0.0998637,0,-1.2,0,7485,45.76,29.271,13394.4
964449368,0.634767,2.223,117.114,-0.0847383,0.0459178,0.948771,3.85138,-2.63192,-0.0521663,-0.094193,-0.232657,0.201206,0,-1.2,0,7485,45.76,29.271,13394.4
964549669,0.634767,2.223,117.116,0.124651,0.0483053,0.957108,3.84232,-2.64781,0.0132358,-0.205959,0.22458,0.790064,0,-1.2,0,7485,45.76,29.271,13394.4
964649980,0.634767,2.223,117.141,0.323584,0.0455965,0.964044,3.60654,-2.50678,0.0272464,-0.240264,3.05622,-0.0248255,0,-1.2,0,7485,45.76,29.271,13394.4
964750357,0.634767,2.223,117.16,0.40466,0.0410562,0.964587,3.24131,-2.27677,-0.0555188,-0.234425,4.23883,1.30888,0,-1.2,0,7485,45.76,29.271,13394.4
964850730,0.634767,2.223,117.175,0.408226,0.0318119,0.962166,2.82633,-1.99463,-0.0715381,-0.0986456,4.65687,1.55639,0,-1.2,0,7485,45.76,29.271,13394.4
964951044,0.634767,2.223,117.175,0.360236,0.023795,0.959468,2.43851,-1.72494,-0.100484,-0.0707296,4.31026,1.49847,0,-1.2,0,7485,45.842,26.809,12289.8
965051411,0.634767,2.223,117.157,0.29003,0.0168519,0.95552,2.05958,-1.44758,-0.142642,0.0298315,3.53323,0.669963,0,-1.2,0,7485,45.842,26.809,12289.8
965151772,0.634767,2.223,117.126,0.221966,0.00706812,0.950793,1.83519,-1.26446,-0.192846,0.152348,2.71766,0.396253,0,-1.2,0,7485,45.842,26.809,12289.8
965252119,0.634767,2.223,117.093,0.159095,0.0101827,0.950402,1.65184,-1.08907,-0.200498,0.254365,2.26422,0.681165,0,-1.2,0,7485,45.842,26.809,12289.8
965352441,0.634767,2.223,117.063,0.0895371,0.0148738,0.951337,1.50757,-0.947064,-0.169268,0.243694,1.7246,0.469625,0,-1.2,0,7485,45.842,26.809,12289.8
965452775,0.634767,2.223,117.039,0.0270483,0.0299425,0.953483,1.41605,-0.851032,-0.112615,0.197442,0.999661,0.963776,0,-1.2,0,7485,45.842,26.809,12289.8
965553053,0.634767,2.223,117.023,-0.00879418,0.0469915,0.954887,1.35661,-0.807802,-0.0509243,-0.0315868,0.621852,0.47541,0,-1.2,0,7485,45.842,26.809,12289.8
965653422,0.634767,2.223,117.024,-0.0286192,0.0560553,0.955859,1.31079,-0.784634,-0.0289133,-0.163843,0.414724,0.208351,0,-1.2,0,7485,45.842,26.809,12289.8
965753782,0.634767,2.223,117.033,-0.0442471,0.0598178,0.956254,1.27918,-0.790966,-0.00695497,-0.274689,0.132835,0.0358486,0,-1.2,0,7485,45.842,26.809,12289.8
965854200,0.634767,2.223,117.048,-0.0530654,0.0609983,0.956252,1.25918,-0.801336,0.00351324,-0.282512,0.0572718,-0.144571,0,-1.2,0,7485,45.842,26.809,12289.8
965954586,0.634767,2.223,117.066,-0.0593194,0.0580421,0.956231,1.25394,-0.822192,0.00990115,-0.265694,-0.118276,-0.0736594,0,-1.2,0,7440,45.932,24.291,11157.3
966054953,0.634767,2.223,117.082,-0.0601128,0.0537001,0.956243,1.24975,-0.844577,0.0117921,-0.267461,-0.071171,-0.0295771,0,-1.2,0,7440,45.932,24.291,11157.3
966155309,0.634767,2.223,117.092,-0.0555555,0.0510506,0.955982,1.24923,-0.864749,-0.00110969,-0.271655,-0.0195916,-0.146548,0,-1.2,0,7440,45.932,24.291,11157.3
966255667,0.634767,2.223,117.1,-0.0489074,0.049653,0.956241,1.25282,-0.887182,-0.00288194,-0.242645,-0.0459221,-0.148302,0,-1.2,0,7440,45.932,24.291,11157.3
966356120,0.634767,2.223,117.101,-0.0422705,0.0461552,0.95632,1.25335,-0.892041,-0.014062,-0.0611234,0.0942504,-0.117773,0,1.1,0,7440,45.932,24.291,11157.3
966456408,0.634767,2.223,117.088,-0.00847053,0.0421534,0.955081,1.24921,-0.908309,-0.0291038,-0.232519,0.0509999,0.239801,0,1.1,0,7440,45.932,24.291,11157.3
966556761,0.634767,2.223,117.068,0.165803,0.03521,0.960837,1.20036,-0.882007,0.00877471,-0.0723507,1.01722,0.143489,0,1.1,0,7440,45.932,24.291,11157.3
966657124,0.634767,2.223,117.057,0.306601,0.0358891,0.964859,0.993248,-0.731514,-0.0516398,-0.0245718,2.96885,-0.019142,0,1.1,0,7440,45.932,24.291,11157.3
966757474,0.634767,2.223,117.033,0.354971,0.0384199,0.965387,0.690101,-0.51351,-0.109821,0.0048762,3.71514,1.30975,0,1.1,0,7440,45.932,24.291,11157.3
966857943,0.634767,2.223,117.017,0.338418,0.0368225,0.963543,0.355554,-0.29008,-0.109632,-0.138487,3.73013,1.67133,0,1.1,0,7440,45.932,24.291,11157.3
966959370,0.634767,2.223,117.008,0.275753,0.034298,0.961537,0.0496345,-0.0718586,-0.0863198,-0.0203846,3.42205,1.44149,0,1.1,0,7396,45.932,24.47,11239.6
967060144,0.634767,2.223,117.001,0.197129,0.0338472,0.960687,-0.191713,0.100152,-0.0483883,-0.0325789,2.73828,0.998605,0,1.1,0,7396,45.932,24.47,11239.6
967160545,0.634767,2.223,116.991,0.132943,0.0359248,0.960234,-0.353506,0.22466,-0.0169601,0.010904,1.95158,0.451053,0,1.1,0,7396,45.932,24.47,11239.6
967260928,0.634767,2.223,116.993,0.0865154,0.0396399,0.96037,-0.461691,0.307267,-0.0188803,0.00587554,1.31057,0.32432,0,1.1,0,7396,45.932,24.47,11239.6
967361310,0.634767,2.223,117.006,0.0567542,0.0408639,0.960407,-0.544596,0.356588,0.00446673,-0.11596,0.92654,0.112245,0,1.1,0,7396,45.932,24.47,11239.6
967461696,0.634767,2.223,117.011,0.0342897,0.0410435,0.960682,-0.605668,0.388956,0.00788517,-0.147909,0.637489,0.0541184,0,1.1,0,7396,45.932,24.47,11239.6
967562057,0.634767,2.223,117.011,0.0205462,0.0398458,0.96041,-0.649679,0.413237,0.000162389,-0.10057,0.428369,0.125816,0,1.1,0,7396,45.932,24.47,11239.6
967662400,0.634767,2.223,117.011,0.0126118,0.0396002,0.960245,-0.684326,0.432789,-0.00368581,-0.076978,0.381559,-0.0556409,0,1.1,0,7396,45.932,24.47,11239.6
967762772,0.634767,2.223,117.011,0.0100768,0.0391205,0.960351,-0.704348,0.444819,-0.000700459,-0.0469961,0.257503,0.12436,0,1.1,0,7396,45.932,24.47,11239.6
967863117,0.634767,2.223,117.013,0.0107753,0.0391014,0.96051,-0.731299,0.457838,-0.00184009,-0.102896,0.350855,-0.127787,0,1.1,0,7396,45.932,24.47,11239.6
967963477,0.634767,2.223,117.001,0.0111504,0.0387064,0.960484,-0.75115,0.461284,-0.0143804,-0.150063,0.210053,0.160352,0,1.1,0,7396,45.932,24.47,11239.6
968063858,0.634767,2.223,117.001,0.00890915,0.0358244,0.960378,-0.765364,0.470285,-0.00760576,-0.0613733,0.197309,-0.0106717,0,1.1,0,7396,45.932,24.47,11239.6
968164252,0.634767,2.223,117.004,0.00604419,0.0339981,0.96031,-0.770955,0.480238,-0.00863957,-0.0139991,0.172855,0.0157616,0,1.1,0,7396,45.932,24.47,11239.6
968264626,0.634767,2.223,117.008,0.00563184,0.0323827,0.960527,-0.771553,0.489175,0.00187744,-0.0665758,0.163052,0.14211,0,1.1,0,7396,45.932,24.47,11239.6
968365046,0.634767,2.223,117.007,0.00502166,0.0306723,0.9606,-0.77114,0.494433,-0.012322,0.00965471,0.144792,-0.112602,0,2.7,0,7396,45.932,24.47,11239.6
968465434,0.634767,2.223,117.014,0.0202293,0.0294714,0.959116,-0.770791,0.522856,-0.00752163,0.23878,0.305021,0.502398,0,2.7,0,7396,45.932,24.47,11239.6
968565820,0.634767,2.223,117.025,0.133267,0.0272218,0.962364,-0.790391,0.55026,0.0300421,0.0552458,0.709929,0.00589425,0,2.7,0,7396,45.879,25.569,11730.8
968666172,0.634767,2.223,117.035,0.219299,0.0295207,0.96462,-0.911589,0.657164,-0.0103323,0.0904485,1.81507,-0.0891968,0,2.7,0,7396,45.879,25.569,11730.8
968766498,0.634767,2.223,117.034,0.257855,0.0339962,0.965564,-1.09034,0.798067,-0.033429,0.0518491,2.32778,0.737348,0,2.7,0,7396,45.879,25.569,11730.8
968866859,0.634767,2.223,117.04,0.251351,0.0386066,0.966147,-1.30685,0.956681,-0.0211153,-0.00592385,2.5801,0.70604,0,2.7,0,7396,45.879,25.569,11730.8
968967218,0.634767,2.223,117.043,0.218071,0.0403204,0.96568,-1.5113,1.08487,-0.0197397,-0.253958,2.39398,0.364701,0,2.7,0,7396,45.879,25.569,11730.8
969067574,0.634767,2.223,117.045,0.17631,0.0379615,0.963872,-1.67549,1.19057,-0.00511943,-0.159397,1.88763,0.314875,0,2.7,0,7396,45.879,25.569,11730.8
969167940,0.634767,2.223,117.044,0.141281,0.035199,0.962276,-1.7956,1.27492,-0.00606641,-0.0917347,1.43906,0.176855,0,2.7,0,7396,45.879,25.569,11730.8
969268384,0.634767,2.223,117.049,0.11647,0.0329144,0.960896,-1.89517,1.33677,0.00096556,-0.0848962,1.14562,0.162383,0,2.7,0,7396,45.879,25.569,11730.8
969368747,0.634767,2.223,117.051,0.0977572,0.0344808,0.960233,-1.96208,1.39227,-0.00480778,0.00731401,0.88313,-0.0655357,0,2.7,0,7396,45.879,25.569,11730.8
969469062,0.634767,2.223,117.05,0.0820271,0.0349024,0.959866,-2.02884,1.44271,-0.0180225,-0.0528168,0.855893,-0.161081,0,2.7,0,7396,45.879,25.569,11730.8
969569437,0.634767,2.223,117.05,0.0673061,0.0327792,0.959451,-2.07582,1.4814,-0.0264392,-0.00844186,0.55129,-0.0474459,0,2.7,0,7396,45.838,27.465,12589.4
969669791,0.634767,2.223,117.047,0.0584661,0.031905,0.95946,-2.11222,1.51095,-0.0298313,0.00440597,0.43409,0.0076781,0,2.7,0,7396,45.838,27.465,12589.4
969770198,0.634767,2.223,117.042,0.0526477,0.0307739,0.959857,-2.14077,1.53587,-0.0272507,0.0290981,0.411759,0.0454431,0,2.7,0,7396,45.838,27.465,12589.4
969871258,0.634767,2.223,117.039,0.0503218,0.031255,0.959775,-2.16251,1.57058,-0.0261136,0.0678864,0.396018,0.0321115,0,2.7,0,7396,45.838,27.465,12589.4
969976440,0.634767,2.223,117.039,0.0489202,0.035452,0.959492,-2.18723,1.58605,-0.0300267,-0.0716004,0.249132,0.177917,0,2.7,0,7396,45.838,27.465,12589.4
970076806,0.634767,2.223,117.044,0.048938,0.0389524,0.959401,-2.20922,1.60603,-0.0227098,-0.031279,0.336134,0.120786,0,2.7,0,7396,45.838,27.465,12589.4
970177155,0.634767,2.223,117.058,0.0462625,0.0397572,0.959319,-2.23145,1.624,-0.0115935,-0.0295867,0.406936,-0.0567557,0,2.7,0,7396,45.838,27.465,12589.4
970277504,0.634767,2.223,117.066,0.0417821,0.0400927,0.95882,-2.24912,1.63271,-0.0127342,-0.0735722,0.28598,-0.00824833,0,2.7,0,7396,45.838,27.465,12589.4
970377908,0.634766,2.223,117.071,0.0366605,0.0391763,0.958475,-2.26376,1.64317,-0.0141545,-0.0403914,0.239504,-0.0304444,0,-3,0,7396,45.838,27.465,12589.4
970478225,0.634766,2.223,117.075,-0.00221167,0.0353728,0.95931,-2.27883,1.64583,-0.0197005,-0.124686,0.200182,0.276461,0,-3,0,7396,45.838,27.465,12589.4
970578588,0.634766,2.223,117.082,-0.193972,0.0259087,0.953351,-2.23754,1.61523,0.032432,-0.0413208,-0.733849,0.277845,0,-3,0,7396,45.851,26.568,12181.7
970678974,0.634766,2.223,117.086,-0.352568,0.0220733,0.951604,-2.00357,1.46484,-0.0177609,0.0027958,-2.87249,0.266847,0,-3,0,7396,45.851,26.568,12181.7
970779350,0.634766,2.223,117.074,-0.449147,0.0142269,0.953876,-1.65757,1.24159,-0.0889946,0.106682,-3.93889,1.35669,0,-3,0,7396,45.851,26.568,12181.7
970879744,0.634766,2.223,117.059,-0.488264,0.00491772,0.959104,-1.22356,0.972442,-0.12413,0.251301,-4.42466,2.32596,0,-3,0,7396,45.851,26.568,12181.7
970980180,0.634766,2.223,117.044,-0.481403,0.00373767,0.960605,-0.747806,0.696652,-0.132796,0.397207,-4.62874,2.44733,0,-3,0,7396,45.851,26.568,12181.7
971080508,0.634766,2.223,117.026,-0.45498,0.0171672,0.953375,-0.285428,0.418221,-0.107474,0.369675,-4.41623,2.58284,0,-3,0,7396,45.851,26.568,12181.7
971180855,0.634766,2.223,117.002,-0.433541,0.0361623,0.945503,0.140318,0.141416,-0.0649656,0.14366,-4.13789,2.54763,0,-3,0,7396,45.851,26.568,12181.7
971281202,0.634766,2.223,116.995,-0.419059,0.0498153,0.941718,0.510964,-0.13163,-0.0422578,-0.0962689,-3.76894,2.18588,0,-3,0,7396,45.851,26.568,12181.7
971381559,0.634766,2.223,116.998,-0.401168,0.0584724,0.940117,0.855418,-0.402479,-0.0257382,-0.233492,-3.64524,1.69241,0,-3,0,7396,45.851,26.568,12181.7
971481916,0.634766,2.223,117.004,-0.351279,0.0592348,0.941082,1.17456,-0.663359,-0.0143794,-0.262457,-3.47177,1.39244,0,-3,0,7396,45.851,26.568,12181.7
971582294,0.634766,2.223,117.012,-0.290774,0.0562128,0.943383,1.44194,-0.879761,0.00281595,-0.226201,-2.83984,1.14952,0,-3,0,7396,45.871,24.982,11459.5
971682638,0.634766,2.223,117.018,-0.229949,0.0523026,0.945928,1.64517,-1.05195,0.00783084,-0.245515,-2.24352,0.406711,0,-3,0,7396,45.871,24.982,11459.5
971782982,0.634767,2.223,117.03,-0.181634,0.0498318,0.94758,1.79397,-1.16793,0.00775618,-0.163978,-1.5752,0.238357,0,-3,0,7396,45.871,24.982,11459.5
971883336,0.634767,2.223,117.038,-0.144843,0.0470351,0.949109,1.90329,-1.26575,0.00645165,-0.227814,-1.15288,0.353683,0,-3,0,7396,45.871,24.982,11459.5
971985726,0.634767,2.223,117.05,-0.11988,0.044743,0.950412,1.98444,-1.33503,0.0158411,-0.155358,-0.832582,0.0365542,0,-3,0,7396,45.871,24.982,11459.5
972093981,0.634767,2.223,117.061,-0.100298,0.0404029,0.952038,2.05245,-1.3851,0.00197441,-0.0526134,-0.483989,-0.0206166,0,-3,0,7396,45.871,24.982,11459.5
972195912,0.634767,2.223,117.066,-0.0889086,0.0364059,0.95334,2.09413,-1.41092,-0.00667898,-0.0554682,-0.405414,-0.0921567,0,-3,0,7396,45.871,24.982,11459.5
972296308,0.634767,2.223,117.064,-0.0871759,0.0355457,0.954061,2.12711,-1.41883,-0.00574625,0.0439814,-0.267198,0.0417012,0,-3,0,7396,45.871,24.982,11459.5
972396674,0.634767,2.223,117.062,-0.0898412,0.0383931,0.954277,2.15906,-1.4254,-0.0258093,0.0134703,-0.324469,-0.18985,0,2,0,7396,45.871,24.982,11459.5
972497059,0.634767,2.223,117.057,-0.0606708,0.0402535,0.952671,2.191,-1.44468,-0.0290907,-0.0534716,-0.39304,0.386056,0,2,0,7396,45.871,24.982,11459.5
972597415,0.634767,2.223,117.065,0.146061,0.0317097,0.959483,2.17139,-1.42452,0.0456567,0.000498511,0.542393,0.47348,0,2,0,7396,45.834,24.36,11165.2
972697789,0.634767,2.223,117.08,0.358746,0.0278792,0.963068,1.93288,-1.23715,0.0110088,0.0887097,3.22727,-0.0123796,0,2,0,7396,45.834,24.36,11165.2
972798145,0.634767,2.223,117.1,0.479761,0.0281175,0.96305,1.55895,-0.955715,-0.0667267,0.111789,4.48857,1.48479,0,2,0,7396,45.834,24.36,11165.2
972898501,0.634767,2.223,117.115,0.532437,0.0276077,0.96158,1.08027,-0.606341,-0.102696,-0.0200145,5.11843,2.7783,0,2,0,7396,45.834,24.36,11165.2
972998805,0.634767,2.223,117.132,0.534647,0.0311761,0.961256,0.549361,-0.21693,-0.108384,0.0876152,5.58928,2.98232,0,2,0,7396,45.834,24.36,11165.2
973099167,0.634767,2.223,117.131,0.497807,0.038152,0.962507,0.0294354,0.160188,-0.113467,0.0143433,5.42354,2.86818,0,2,0,7396,45.834,24.36,11165.2
973199510,0.634767,2.223,117.102,0.409799,0.0483216,0.964924,-0.453838,0.498675,-0.0932075,-0.0358205,4.85809,2.6825,0,2,0,7396,45.834,24.36,11165.2
973299811,0.634767,2.223,117.087,0.308205,0.0571535,0.967179,-0.843767,0.758411,-0.054948,-0.141576,3.86416,1.75883,0,2,0,7396,45.834,24.36,11165.2
973400215,0.634767,2.223,117.085,0.208364,0.061376,0.966881,-1.13359,0.93156,-0.0290567,-0.287652,2.81145,0.80394,0,2,0,7396,45.834,24.36,11165.2
973500571,0.634767,2.223,117.082,0.128034,0.0598042,0.965541,-1.33432,1.03251,-0.0175896,-0.348699,1.8606,0.198577,0,2,0,7396,45.834,24.36,11165.2
973600919,0.634767,2.223,117.076,0.0764724,0.0540113,0.96352,-1.46527,1.08934,-0.0256599,-0.3026,1.08389,0.128692,0,2,0,7353,45.742,29.305,13404.7
973701252,0.634767,2.223,117.082,0.0422261,0.0449914,0.961995,-1.554,1.11806,-0.0204715,-0.236652,0.630197,0.0872227,0,2,0,7353,45.742,29.305,13404.7
973801601,0.634767,2.223,117.091,0.0210611,0.0378519,0.960936,-1.60487,1.13934,-0.019029,-0.149453,0.290612,0.0224622,0,2,0,7353,45.742,29.305,13404.7
973901949,0.634767,2.223,117.091,0.012814,0.0341781,0.959967,-1.63,1.15396,-0.0283791,-0.043211,0.145387,-0.130222,0,2,0,7353,45.742,29.305,13404.7
974002301,0.634767,2.223,117.078,0.00941371,0.032386,0.959302,-1.64472,1.16702,-0.0267374,0.0119898,0.150491,0.0136689,0,2,0,7353,45.742,29.305,13404.7
974102652,0.634767,2.223,117.075,0.00916961,0.0340408,0.95902,-1.65462,1.17882,-0.0236695,-0.0236952,0.14472,-0.142415,0,2,0,7353,45.742,29.305,13404.7
974203024,0.634767,2.223,117.075,0.00980198,0.0350482,0.958677,-1.66217,1.18805,-0.0300399,0.0148028,0.175281,0.0182124,0,2,0,7353,45.742,29.305,13404.7
974303397,0.634767,2.223,117.077,0.0108362,0.0360127,0.958944,-1.65468,1.19093,-0.0288398,-0.00703293,0.0277848,-0.053405,0,2,0,7353,45.742,29.305,13404.7
974403818,0.634767,2.223,117.076,0.0113826,0.034868,0.959254,-1.64637,1.19095,-0.0265964,0.018204,0.0497686,0.113405,0,-3.4,0,7353,45.742,29.305,13404.7
974504209,0.634767,2.223,117.071,-0.00483405,0.0330234,0.961005,-1.63773,1.1865,-0.0263794,-0.0261767,0.0304266,-0.04314,0,-3.4,0,7353,45.742,29.305,13404.7
974604557,0.634767,2.223,117.07,-0.172752,0.0240872,0.956141,-1.60882,1.1691,0.0211243,0.0172181,-0.434447,0.40553,0,-3.4,0,7353,45.755,27.218,12453.6
974704930,0.634766,2.223,117.067,-0.341211,0.019427,0.953813,-1.4004,1.04048,-0.0111645,0.117071,-2.53944,0.0529951,0,-3.4,0,7353,45.755,27.218,12453.6
974805255,0.634766,2.223,117.059,-0.447301,0.0183495,0.953676,-1.06453,0.826506,-0.0701557,0.109468,-3.75817,1.16459,0,-3.4,0,7353,45.755,27.218,12453.6
974905520,0.634766,2.223,117.052,-0.493318,0.020728,0.952791,-0.633926,0.552028,-0.0924315,0.157655,-4.35065,2.23475,0,-3.4,0,7353,45.755,27.218,12453.6
975005887,0.634766,2.223,117.047,-0.496458,0.0257762,0.950424,-0.167213,0.254752,-0.085054,0.161764,-4.58746,2.58959,0,-3.4,0,7353,45.755,27.218,12453.6
975106240,0.634766,2.223,117.032,-0.477952,0.0321299,0.948559,0.281757,-0.0504931,-0.0685095,0.0880164,-4.36831,2.61309,0,-3.4,0,7353,45.755,27.218,12453.6
975206621,0.634766,2.223,117.002,-0.457457,0.0366291,0.946873,0.705264,-0.346685,-0.0533098,0.0133507,-4.30529,2.11875,0,-3.4,0,7353,45.755,27.218,12453.6
975306901,0.634767,2.223,116.989,-0.438904,0.0423356,0.944616,1.11071,-0.634228,-0.0342827,0.0314365,-4.07316,2.21951,0,-3.4,0,7353,45.755,27.218,12453.6
975407198,0.634767,2.223,116.988,-0.395597,0.0475748,0.943422,1.48445,-0.914449,-0.0207822,-0.109587,-3.86662,1.84333,0,-3.4,0,7353,45.755,27.218,12453.6
975507575,0.634767,2.223,116.981,-0.328135,0.0472584,0.944672,1.79451,-1.14976,-0.00473927,-0.0888232,-3.08729,1.45496,0,-3.4,0,7353,45.755,27.218,12453.6
975607872,0.634767,2.223,116.973,-0.262218,0.0456502,0.94641,2.03748,-1.33518,0.00957665,-0.11947,-2.44015,0.83338,0,-3.4,0,7353,45.755,27.218,12453.6
975708277,0.634767,2.223,116.973,-0.203441,0.0437404,0.948476,2.22426,-1.47901,0.0221544,-0.141878,-1.84894,0.523517,0,-3.4,0,7353,45.742,29.127,13323.3
975808634,0.634767,2.223,116.983,-0.157518,0.0423481,0.950357,2.35478,-1.5816,0.0275591,-0.107583,-1.33328,0.177535,0,-3.4,0,7353,45.742,29.127,13323.3
975908999,0.634767,2.223,117.003,-0.125244,0.0411421,0.95199,2.44775,-1.65029,0.0371662,-0.0897436,-0.856796,-0.133692,0,-3.4,0,7353,45.742,29.127,13323.3
976009319,0.634767,2.223,117.019,-0.106301,0.0397083,0.952909,2.51647,-1.69921,0.0148422,-0.126096,-0.629026,-0.0704381,0,-3.4,0,7353,45.742,29.127,13323.3
976109727,0.634767,2.223,117.029,-0.0929303,0.035336,0.953204,2.56481,-1.72855,0.0179008,0.0247711,-0.361697,0.00611404,0,-3.4,0,7353,45.742,29.127,13323.3
976210128,0.634767,2.223,117.037,-0.0881994,0.0367567,0.95348,2.60285,-1.74487,0.00268955,0.0193567,-0.333106,-0.245925,0,-3.4,0,7353,45.742,29.127,13323.3
976310486,0.634767,2.223,117.036,-0.0845998,0.0393754,0.953395,2.6344,-1.75869,-0.0111506,-0.0398195,-0.28202,-0.238839,0,-3.4,0,7353,45.742,29.127,13323.3
976410829,0.634767,2.223,117.03,-0.0829709,0.042991,0.953384,2.66304,-1.77739,-0.0200352,-0.087509,-0.274299,0.0375848,0,4.7,0,7353,45.742,29.127,13323.3
976511214,0.634767,2.223,117.035,-0.0676173,0.0432583,0.951934,2.67446,-1.78899,-0.0100711,-0.118541,-0.215966,0.0301948,0,4.7,0,7353,45.742,29.127,13323.3
976611562,0.634767,2.223,117.042,0.115681,0.0323029,0.957577,2.65945,-1.78193,0.057065,-0.0491444,0.533849,0.343592,0,4.7,0,7353,45.742,29.127,13323.3
976711926,0.634767,2.223,117.048,0.316126,0.0193136,0.960478,2.44163,-1.59659,0.023753,0.118353,3.17885,-0.400552,0,4.7,0,7353,45.754,27.975,12799.7
976812319,0.634767,2.223,117.056,0.442774,0.0128519,0.958958,2.09412,-1.31966,-0.0773424,0.176588,4.25876,1.43418,0,4.7,0,7353,45.754,27.975,12799.7
976912666,0.634767,2.223,117.056,0.501633,0.00980655,0.956246,1.63569,-0.967589,-0.104301,0.19035,5.06491,2.5621,0,4.7,0,7353,45.754,27.975,12799.7
977013006,0.634767,2.223,117.065,0.512927,0.0129409,0.956325,1.14245,-0.576321,-0.0996525,0.311022,5.33313,2.77126,0,4.7,0,7353,45.754,27.975,12799.7
977113345,0.634767,2.223,117.054,0.497027,0.0174979,0.956523,0.654466,-0.197644,-0.0939096,0.213354,5.1171,2.95423,0,4.7,0,7353,45.754,27.975,12799.7
977213644,0.634767,2.223,117.038,0.469941,0.0238153,0.958876,0.171263,0.159459,-0.0683609,0.0779639,5.01502,2.86862,0,4.7,0,7353,45.754,27.975,12799.7
977313960,0.634767,2.223,117.031,0.447174,0.0293768,0.961397,-0.27891,0.488376,-0.0457235,0.0417217,4.59005,2.44187,0,4.7,0,7353,45.754,27.975,12799.7
977414247,0.634767,2.223,117.031,0.422805,0.0351629,0.963558,-0.695613,0.803203,-0.0322651,0.134348,4.34045,2.1001,0,4.7,0,7353,45.754,27.975,12799.7
977514593,0.634767,2.223,117.032,0.399712,0.0426206,0.965635,-1.08555,1.08116,-0.0136679,0.0346086,3.98927,1.92937,0,4.7,0,7353,45.754,27.975,12799.7
977614957,0.634767,2.223,117.027,0.381435,0.0485657,0.967533,-1.45716,1.33052,0.00231386,-0.102756,3.79372,1.65244,0,4.7,0,7353,45.754,27.975,12799.7
977715266,0.634767,2.223,117.026,0.368207,0.0534126,0.968771,-1.8084,1.56146,0.00736859,-0.141437,3.59336,1.47207,0,4.7,0,7353,45.73,27.48,12566.6
977815636,0.634767,2.223,117.024,0.356623,0.0542145,0.968551,-2.16042,1.76276,-0.00410284,-0.321375,3.4799,1.06127,0,4.7,0,7353,45.73,27.48,12566.6
977916127,0.634767,2.223,117.028,0.319925,0.0507314,0.966762,-2.47387,1.96157,0.00234279,-0.15374,3.18465,1.27754,0,4.7,0,7353,45.73,27.48,12566.6
978016489,0.634767,2.223,117.035,0.271362,0.0500579,0.966116,-2.73956,2.12665,0.0285289,-0.175467,2.71321,0.887702,0,4.7,0,7353,45.73,27.48,12566.6
978116845,0.634767,2.223,117.046,0.222545,0.0495298,0.965424,-2.95689,2.25149,0.0385961,-0.250472,2.27851,0.294765,0,4.7,0,7353,45.73,27.48,12566.6
978217168,0.634767,2.223,117.061,0.182633,0.0455733,0.964519,-3.12378,2.34886,0.0346149,-0.17575,1.7421,0.275339,0,4.7,0,7353,45.73,27.48,12566.6
978317795,0.634767,2.223,117.073,0.149809,0.0426904,0.963387,-3.24612,2.44062,0.0297495,-0.00862169,1.46062,0.180427,0,4.7,0,7353,45.73,27.48,12566.6
978418202,0.634767,2.223,117.075,0.128321,0.0426787,0.963199,-3.32761,2.50518,0.0180773,0.0345194,1.05721,-0.0909759,0,3,0,7353,45.73,27.48,12566.6
978518547,0.634767,2.223,117.076,0.0839693,0.0467396,0.964666,-3.39912,2.55287,0.00155395,-0.032702,0.922626,0.363405,0,3,0,7353,45.73,27.48,12566.6
978618907,0.634767,2.223,117.073,-0.0396054,0.048136,0.959605,-3.41686,2.55893,0.0420578,-0.0664207,0.065096,0.379654,0,3,0,7353,45.73,27.48,12566.6
978719231,0.634767,2.223,117.077,-0.142304,0.0535803,0.956661,-3.31933,2.47815,0.0219113,-0.160633,-1.23652,-0.340842,0,3,0,7353,45.757,28.547,13062.3
978819539,0.634767,2.223,117.077,-0.186612,0.0584936,0.956525,-3.16324,2.34825,-0.0414686,-0.233961,-1.93615,-0.28954,0,3,0,7353,45.757,28.547,13062.3
978919880,0.634767,2.223,117.081,-0.188735,0.0576353,0.957507,-2.98518,2.18661,-0.0503953,-0.335353,-2.13711,0.274049,0,3,0,7353,45.757,28.547,13062.3
979020310,0.634766,2.223,117.075,-0.154497,0.0535937,0.959925,-2.81519,2.02656,-0.0736833,-0.402201,-1.95238,0.412317,0,3,0,7353,45.757,28.547,13062.3
979120681,0.634766,2.223,117.061,-0.114051,0.0468329,0.960959,-2.67375,1.89538,-0.0786688,-0.305891,-1.54655,0.0869616,0,3,0,7353,45.757,28.547,13062.3
979221028,0.634766,2.223,117.038,-0.0767389,0.0415702,0.961085,-2.56859,1.79972,-0.0889095,-0.257178,-1.06547,0.39688,0,3,0,7353,45.757,28.547,13062.3
979321380,0.634766,2.223,117.025,-0.0473782,0.029398,0.961533,-2.48721,1.72244,-0.0545333,-0.206184,-0.776711,0.306674,0,3,0,7353,45.757,28.547,13062.3
979421691,0.634766,2.223,117.017,-0.0233731,0.0182509,0.960798,-2.41806,1.68037,-0.0354337,-0.00258542,-0.469094,-0.0123719,0,3,0,7353,45.757,28.547,13062.3
979522056,0.634766,2.223,117.004,-0.00799194,0.0101086,0.959178,-2.3631,1.66503,-0.0273234,0.126435,-0.206667,0.5914,0,3,0,7353,45.757,28.547,13062.3
979622401,0.634766,2.223,116.987,0.00664268,0.0110392,0.958327,-2.30972,1.66327,-0.0162076,0.221415,-0.168536,0.147403,0,3,0,7353,45.757,28.547,13062.3
979722741,0.634766,2.223,116.979,0.0216453,0.0158412,0.958545,-2.25669,1.67157,-0.00414408,0.269977,-0.111305,0.341063,0,3,0,7353,45.673,30.866,14097.4
979823088,0.634766,2.223,116.975,0.037521,0.0243502,0.959048,-2.23421,1.68209,0.0111193,0.16477,0.155337,0.0805046,0,3,0,7353,45.673,30.866,14097.4
979923440,0.634766,2.223,116.974,0.04802,0.028127,0.959759,-2.24009,1.68934,0.00512365,-0.084217,0.306455,0.0749863,0,3,0,7353,45.673,30.866,14097.4
980023804,0.634766,2.223,116.967,0.053615,0.0302289,0.959613,-2.24248,1.70357,0.0186908,-0.00336843,0.31273,0.0431623,0,3,0,7353,45.673,30.866,14097.4
980124215,0.634766,2.223,116.965,0.0580642,0.0345761,0.959642,-2.25711,1.71799,0.0164295,-0.0482021,0.374934,0.203383,0,3,0,7353,45.673,30.866,14097.4
980225461,0.634766,2.223,116.965,0.0607011,0.0401187,0.959497,-2.27869,1.7352,0.00957688,-0.0585078,0.400263,-0.0691795,0,3,0,7353,45.673,30.866,14097.4
980332672,0.634766,2.223,116.959,0.0613302,0.0456527,0.959725,-2.31012,1.74738,0.00544692,-0.178986,0.406024,0.166618,0,3,0,7353,45.673,30.866,14097.4
980436917,0.634766,2.223,116.963,0.0610634,0.0510319,0.960766,-2.34762,1.74787,0.00634174,-0.324283,0.43254,0.126432,0,3.2,0,7353,45.673,30.866,14097.4
980537307,0.634766,2.223,116.968,0.0679989,0.0523406,0.961003,-2.38155,1.74594,0.0210356,-0.257216,0.299028,-0.163574,0,3.2,0,7353,45.673,30.866,14097.4
980639181,0.634766,2.223,116.97,0.0779959,0.0507975,0.961786,-2.4323,1.75013,0.0131601,-0.321879,0.521748,-0.00373103,0,3.2,0,7353,45.673,30.866,14097.4
980741129,0.634766,2.223,116.981,0.0773702,0.0464168,0.961391,-2.49074,1.77464,0.0173752,-0.21345,0.642672,-0.0286678,0,3.2,0,7353,45.787,24.257,11106.6
980841504,0.634766,2.223,116.982,0.0697032,0.0522572,0.961965,-2.53012,1.79606,0.00493409,-0.160239,0.527735,-0.11769,0,3.2,0,7353,45.787,24.257,11106.6
980941851,0.634766,2.223,116.976,0.0625818,0.0544335,0.961355,-2.58672,1.79418,0.0182993,-0.486955,0.449437,0.652636,0,3.2,0,7353,45.787,24.257,11106.6
981042201,0.634766,2.223,116.972,0.059108,0.0493801,0.961133,-2.63664,1.78286,0.0142685,-0.414985,0.345186,-0.176615,0,3.2,0,7353,45.787,24.257,11106.6
981142553,0.634766,2.223,116.965,0.0565942,0.0432317,0.960886,-2.67455,1.77611,-0.00342163,-0.346129,0.302816,-0.0566875,0,3.2,0,7353,45.787,24.257,11106.6
981242950,0.634766,2.223,116.953,0.0546806,0.035761,0.96026,-2.71493,1.78616,-0.00333381,-0.177178,0.391542,0.0272044,0,3.2,0,7353,45.787,24.257,11106.6
981343327,0.634766,2.223,116.944,0.0463472,0.030703,0.959751,-2.74113,1.78886,-0.0024066,-0.184194,0.210154,0.115281,0,3.2,0,7353,45.787,24.257,11106.6
981443637,0.634766,2.223,116.936,0.040652,0.0270778,0.958713,-2.76402,1.79428,0.00583213,-0.168563,0.235167,0.0928583,0,3.2,0,7353,45.787,24.257,11106.6
981543996,0.634766,2.223,116.932,0.0297822,0.0218844,0.95804,-2.7821,1.79807,0.03554,-0.0442122,0.132011,0.250382,0,3.2,0,7353,45.787,24.257,11106.6
981644383,0.634766,2.223,116.923,0.0261,0.0153242,0.958034,-2.77263,1.79821,0.0367294,0.0222482,0.00629204,0.154475,0,3.2,0,7353,45.787,24.257,11106.6
981744737,0.634766,2.223,116.916,0.0274113,0.0148608,0.95825,-2.75923,1.80362,0.033785,0.0270736,-0.0653455,0.00372527,0,3.2,0,7353,45.787,24.257,11106.6
981845086,0.634765,2.223,116.905,0.0310431,0.0170437,0.957931,-2.75216,1.80169,0.0265488,-0.0101861,-0.0617081,0.0291454,0,3.2,0,7353,45.802,24.473,11209.1
981945450,0.634765,2.223,116.895,0.0336336,0.0173958,0.957452,-2.73225,1.81766,0.0245634,0.189983,-0.0746243,0.118382,0,3.2,0,7353,45.802,24.473,11209.1
982045801,0.634765,2.223,116.886,0.0351404,0.0157076,0.957746,-2.72669,1.83582,0.0365284,0.0775106,0.0906558,0.209901,0,3.2,0,7353,45.802,24.473,11209.1
982146181,0.634765,2.223,116.875,0.0371451,0.0175083,0.95868,-2.71849,1.84942,0.0330821,0.0259303,0.0787908,-0.0161442,0,3.2,0,7353,45.802,24.473,11209.1
982246551,0.634765,2.223,116.873,0.0428508,0.0213512,0.958209,-2.72013,1.85615,0.0333078,0.0148939,0.119773,0.269214,0,3.2,0,7353,45.802,24.473,11209.1
982346904,0.634765,2.223,116.881,0.044063,0.0252991,0.958302,-2.72037,1.86042,0.035673,-0.0653785,0.124584,0.0915402,0,3.2,0,7353,45.802,24.473,11209.1
982447310,0.634765,2.223,116.884,0.0435104,0.0252533,0.958225,-2.72405,1.86175,0.0464815,-0.0805499,0.109271,0.122502,0,-4.4,0,7353,45.802,24.473,11209.1
982547722,0.634765,2.223,116.88,0.0286448,0.0265739,0.959983,-2.72209,1.8622,0.0449066,-0.0188411,0.0408681,-0.0726738,0,-4.4,0,7353,45.802,24.473,11209.1
982648102,0.634765,2.223,116.886,-0.137747,0.0219379,0.957156,-2.71332,1.85337,0.0908562,-0.0370887,-0.265511,0.654812,0,-4.4,0,7353,45.802,24.473,11209.1
982748468,0.634765,2.223,116.905,-0.302375,0.0253918,0.952236,-2.5164,1.72727,0.110175,0.0179677,-2.49916,0.203963,0,-4.4,0,7353,45.802,24.473,11209.1
982848813,0.634765,2.223,116.911,-0.411643,0.0340011,0.947359,-2.2106,1.51245,0.0417366,-0.0909995,-3.7435,0.828737,0,-4.4,0,7308,45.821,23.965,10981
982949152,0.634765,2.223,116.91,-0.468645,0.0341784,0.946558,-1.82432,1.22201,0.00748031,-0.159072,-4.40867,1.89048,0,-4.4,0,7308,45.821,23.965,10981
983049512,0.634765,2.223,116.906,-0.483752,0.0234277,0.952346,-1.38856,0.91097,-0.0122899,-0.064419,-4.7081,2.27356,0,-4.4,0,7308,45.821,23.965,10981
983149862,0.634765,2.223,116.9,-0.475417,0.00423442,0.960826,-0.956255,0.612175,-0.0516103,-0.00204881,-4.52698,2.37804,0,-4.4,0,7308,45.821,23.965,10981
983250216,0.634765,2.223,116.888,-0.451011,-0.00415851,0.962849,-0.408191,0.281786,-0.0250085,0.334054,-4.52369,2.56178,0,-4.4,0,7308,45.821,23.965,10981
983350602,0.634765,2.223,116.883,-0.429798,0.00453076,0.956772,0.0150582,0.0144318,0.00144783,0.191069,-4.23589,2.10586,0,-4.4,0,7308,45.821,23.965,10981
983450945,0.634765,2.223,116.883,-0.40874,0.0136995,0.951733,0.396075,-0.244904,0.0200387,-0.000392582,-3.98174,1.76366,0,-4.4,0,7308,45.821,23.965,10981
983551289,0.634765,2.223,116.886,-0.386795,0.0226871,0.947287,0.747479,-0.493197,0.0321913,-0.0283081,-3.69955,1.65595,0,-4.4,0,7308,45.821,23.965,10981
983651631,0.634765,2.223,116.903,-0.368104,0.028467,0.945018,1.07489,-0.729125,0.0524102,-0.0827701,-3.49285,1.32662,0,-4.4,0,7308,45.821,23.965,10981
983751998,0.634765,2.223,116.926,-0.354453,0.0305576,0.943959,1.38023,-0.94761,0.0524204,-0.0685169,-3.25925,1.17926,0,-4.4,0,7308,45.821,23.965,10981
983852399,0.634765,2.223,116.939,-0.345223,0.0327378,0.94316,1.66433,-1.16184,0.0598021,-0.116475,-3.11071,0.967412,0,-4.4,0,7264,45.803,24.688,11307.8
983952750,0.634765,2.223,116.949,-0.338665,0.0350115,0.942393,1.93859,-1.3695,0.056914,-0.133426,-3.13076,0.748888,0,-4.4,0,7264,45.803,24.688,11307.8
984053124,0.634765,2.223,116.953,-0.327939,0.0365671,0.941932,2.19855,-1.57487,0.0572759,-0.196252,-2.91335,1.05007,0,-4.4,0,7264,45.803,24.688,11307.8
984153494,0.634765,2.223,116.956,-0.296293,0.0343845,0.943126,2.43765,-1.76492,0.0511906,-0.200071,-2.7071,0.838218,0,-4.4,0,7264,45.803,24.688,11307.8
984253860,0.634765,2.223,116.954,-0.257251,0.0327707,0.944551,2.64085,-1.92532,0.0493802,-0.150034,-2.38846,0.528171,0,-4.4,0,7264,45.803,24.688,11307.8
984354211,0.634765,2.223,116.953,-0.218057,0.0326525,0.94546,2.79778,-2.05482,0.0338889,-0.205056,-1.90489,0.337081,0,-4.4,0,7264,45.803,24.688,11307.8
984454643,0.634765,2.223,116.95,-0.184266,0.0291899,0.946674,2.92287,-2.15601,0.0291145,-0.194035,-1.4894,0.35525,0,-0.9,0,7264,45.803,24.688,11307.8
984554995,0.634765,2.223,116.944,-0.135029,0.02647,0.945868,3.02456,-2.24315,0.0314087,-0.152248,-1.29664,0.561213,0,-0.9,0,7264,45.803,24.688,11307.8
984655333,0.634766,2.223,116.95,0.112154,0.0253203,0.95228,3.07244,-2.29526,0.106875,-0.178345,-0.323671,0.435873,0,-0.9,0,7264,45.803,24.688,11307.8
984755692,0.634766,2.223,116.96,0.353892,0.0187567,0.957004,2.85278,-2.14988,0.0714241,-0.110615,3.09706,-0.310129,0,-0.9,0,7264,45.803,24.688,11307.8
984856069,0.634766,2.223,116.964,0.447329,0.0152797,0.957442,2.47542,-1.88857,-0.0287921,-0.0767888,4.3543,1.53176,0,-0.9,0,7264,45.778,25.993,11899.1
984956399,0.634766,2.223,116.968,0.434874,0.0131463,0.957317,2.03023,-1.5757,-0.0471491,-0.0879859,4.6629,2.25419,0,-0.9,0,7264,45.778,25.993,11899.1
985056747,0.634766,2.223,116.97,0.349287,0.0101588,0.957322,1.6075,-1.28195,-0.0144175,-0.171206,4.38351,2.31579,0,-0.9,0,7264,45.778,25.993,11899.1
985158030,0.634766,2.223,116.959,0.241164,0.00964138,0.957966,1.3018,-1.05173,-0.00129596,0.0984752,3.2803,1.1081,0,-0.9,0,7264,45.778,25.993,11899.1
985258837,0.634766,2.223,116.958,0.149054,0.0143631,0.958653,1.09653,-0.884181,0.00462294,0.106821,2.2299,0.534802,0,-0.9,0,7264,45.778,25.993,11899.1
985361000,0.634766,2.223,116.957,0.0847722,0.0171954,0.958506,0.951234,-0.777664,0.0159946,-0.00879263,1.43413,0.0801964,0,-0.9,0,7264,45.778,25.993,11899.1
985468822,0.634766,2.223,116.962,0.0391111,0.016054,0.957608,0.85623,-0.706581,0.00790436,-0.0235974,0.841381,0.0755083,0,-0.9,0,7264,45.778,25.993,11899.1
985572120,0.634766,2.223,116.971,0.00970899,0.0144796,0.956491,0.790492,-0.655371,0.00672935,0.0397801,0.381675,-0.0403052,0,-0.9,0,7264,45.778,25.993,11899.1
985672475,0.634766,2.223,116.975,-0.00438815,0.0131818,0.955691,0.759622,-0.619221,0.0106207,0.0667349,0.128543,0.0403652,0,-0.9,0,7264,45.778,25.993,11899.1
985772821,0.634766,2.223,116.975,-0.0119866,0.0128833,0.955108,0.740164,-0.595442,0.0208368,0.0234496,0.0419387,-0.0621105,0,-0.9,0,7264,45.778,25.993,11899.1
985873173,0.634766,2.223,116.976,-0.0157602,0.0127851,0.955212,0.724573,-0.576473,0.0134081,0.0245968,0.000364777,-0.0963675,0,-0.9,0,7264,45.69,27.904,12749.3
985973544,0.634766,2.223,116.974,-0.0181879,0.0132159,0.954989,0.719592,-0.55648,0.0176144,0.0824598,0.0183969,0.281945,0,-0.9,0,7264,45.69,27.904,12749.3
986074975,0.634766,2.223,116.977,-0.0204534,0.0135289,0.955003,0.718989,-0.541083,0.0184349,0.0745197,0.0174851,-0.163023,0,-0.9,0,7264,45.69,27.904,12749.3
986175646,0.634766,2.223,116.979,-0.0228254,0.0114386,0.954735,0.716856,-0.531085,0.0187356,-0.00851365,-0.0249289,-0.0988114,0,-0.9,0,7264,45.69,27.904,12749.3
986276101,0.634766,2.223,116.976,-0.0230373,0.0073134,0.954204,0.729261,-0.5303,0.00648076,0.032911,-0.084603,-0.141643,0,-0.9,0,7264,45.69,27.904,12749.3
986376488,0.634766,2.223,116.962,-0.0220586,0.00681742,0.953736,0.74582,-0.512262,-0.00167318,0.181345,-0.0226491,0.00142707,0,-0.9,0,7264,45.69,27.904,12749.3
986476924,0.634766,2.223,116.958,-0.0218134,0.0102761,0.953502,0.756779,-0.497408,-0.00137079,0.13504,0.0443482,0.0252807,0,-0.8,0,7264,45.69,27.904,12749.3
986577301,0.634766,2.223,116.957,-0.0161274,0.012118,0.953543,0.766696,-0.49162,0.00237327,0.0497957,-0.0189921,0.0731386,0,-0.8,0,7264,45.69,27.904,12749.3
986677669,0.634766,2.223,116.953,-0.0048073,0.0108354,0.954406,0.773619,-0.480996,0.00651801,0.149245,0.0604499,0.101113,0,-0.8,0,7264,45.69,27.904,12749.3
986778032,0.634766,2.223,116.947,-0.0029374,0.0135282,0.954504,0.775288,-0.465905,0.00460439,0.0804834,0.102708,0.0601607,0,-0.8,0,7264,45.69,27.904,12749.3
986878403,0.634766,2.223,116.94,-0.00160288,0.0136307,0.954393,0.772642,-0.450351,0.0106502,0.0896611,0.160827,0.311168,0,-0.8,0,7264,45.687,28.958,13230
986978761,0.634766,2.223,116.939,4.31994e-05,0.0113565,0.954506,0.773199,-0.433108,0.0213413,0.160332,0.168838,-0.202252,0,-0.8,0,7264,45.687,28.958,13230
987079111,0.634766,2.223,116.938,-0.000389594,0.011764,0.954048,0.771617,-0.414594,0.024077,0.0983576,0.184827,-0.161799,0,-0.8,0,7264,45.687,28.958,13230
987179443,0.634766,2.223,116.936,-0.000971735,0.0113972,0.953763,0.774049,-0.402433,0.0204497,0.0735789,0.126337,-0.168816,0,-0.8,0,7264,45.687,28.958,13230
987279813,0.634766,2.223,116.934,-0.00171722,0.0130597,0.953449,0.777638,-0.389135,0.0141896,0.0976284,0.142393,0.0347811,0,-0.8,0,7264,45.687,28.958,13230
987380212,0.634766,2.223,116.934,-0.00473884,0.0163161,0.953195,0.771725,-0.378808,0.0165257,0.0293853,0.151525,-0.0713564,0,-0.8,0,7264,45.687,28.958,13230
987480550,0.634766,2.223,116.941,-0.00784927,0.0172645,0.953448,0.765611,-0.369382,0.0310842,0.0276818,0.165345,0.105163,0,-0.8,0,7264,45.687,28.958,13230
987580906,0.634766,2.223,116.947,-0.0114345,0.0161695,0.954168,0.761136,-0.363637,0.0310833,-0.00808845,0.128656,-0.136906,0,-0.8,0,7264,45.687,28.958,13230
987681291,0.634766,2.223,116.953,-0.0131883,0.0159238,0.954831,0.768163,-0.363686,0.0243608,0.0301207,-0.0021879,-0.0585184,0,-0.8,0,7264,45.687,28.958,13230
987781658,0.634766,2.223,116.954,-0.014733,0.0154755,0.954789,0.767518,-0.36333,0.0285774,-0.00565683,0.0445352,0.0428848,0,-0.8,0,7264,45.687,28.958,13230
987881976,0.634766,2.223,116.961,-0.0145377,0.016044,0.954584,0.778207,-0.358275,0.0304905,0.0641382,-0.0276619,-0.148918,0,-0.8,0,7264,45.687,28.958,13230
987982304,0.634766,2.223,116.96,-0.0159133,0.0169399,0.954485,0.790381,-0.352814,0.0214429,0.11885,-0.0295296,-0.017413,0,-0.8,0,7264,45.69,27.661,12638.3
988082688,0.634766,2.223,116.961,-0.0181426,0.0194824,0.954628,0.798446,-0.344499,0.0213295,0.054268,-0.0254079,-0.0726727,0,-0.8,0,7264,45.69,27.661,12638.3
988183033,0.634766,2.223,116.956,-0.0196926,0.0208814,0.954907,0.798951,-0.348023,0.0152813,-0.0355573,-0.0011388,0.0625936,0,-0.8,0,7264,45.69,27.661,12638.3
988283391,0.634766,2.223,116.956,-0.0208086,0.0240196,0.954783,0.805414,-0.351464,0.024658,-0.0225567,-0.0604033,-0.0567834,0,-0.8,0,7264,45.69,27.661,12638.3
988383740,0.634766,2.223,116.952,-0.0208052,0.0271001,0.95504,0.815895,-0.346084,0.0256701,0.109923,-0.0777259,-0.268039,0,-0.8,0,7264,45.69,27.661,12638.3
988484130,0.634766,2.223,116.946,-0.0216426,0.0300323,0.955005,0.814164,-0.357636,0.014345,-0.0768171,-0.0510112,0.129458,0,-0.6,0,7264,45.69,27.661,12638.3
988584480,0.634766,2.223,116.949,-0.014559,0.0312705,0.954694,0.803081,-0.367658,0.0183446,-0.115406,0.0485176,0.128589,0,-0.6,0,7264,45.69,27.661,12638.3
988684824,0.634766,2.223,116.947,0.0113049,0.0333481,0.954821,0.781559,-0.363937,0.0136928,-0.0870805,0.290866,0.0521711,0,-0.6,0,7264,45.69,27.661,12638.3
988785158,0.634766,2.223,116.946,0.0162916,0.0382782,0.955035,0.738053,-0.352613,0.0211204,-0.220844,0.410043,0.00326829,0,-0.6,0,7264,45.69,27.661,12638.3
988885525,0.634766,2.223,116.947,0.0140439,0.0409677,0.955348,0.693312,-0.341817,0.0154328,-0.167113,0.438551,0.00364434,0,-0.6,0,7264,45.69,27.661,12638.3
988985886,0.634766,2.223,116.954,0.00759366,0.0412991,0.955643,0.648981,-0.341074,0.0235348,-0.235295,0.37531,0.0151896,0,-0.6,0,7264,45.691,26.969,12322.4
989086253,0.634766,2.223,116.958,0.000636611,0.0396137,0.955842,0.611796,-0.339314,0.0263979,-0.214149,0.328884,0.0852214,0,-0.6,0,7264,45.691,26.969,12322.4
989186614,0.634766,2.223,116.96,-0.00406539,0.0351963,0.9564,0.583453,-0.339729,0.0269815,-0.177113,0.221243,0.160232,0,-0.6,0,7264,45.691,26.969,12322.4
989286963,0.634766,2.223,116.964,-0.00618432,0.0298956,0.956745,0.559054,-0.340684,0.0277871,-0.169747,0.248815,-0.0331476,0,-0.6,0,7264,45.691,26.969,12322.4
989387313,0.634766,2.223,116.968,-0.00772478,0.026671,0.957079,0.545749,-0.332665,0.0253376,-0.0278399,0.187804,0.0848794,0,-0.6,0,7264,45.691,26.969,12322.4
989487644,0.634766,2.223,116.968,-0.0103726,0.0269851,0.957982,0.532415,-0.326055,0.031375,-0.0465121,0.186504,-0.0332398,0,-0.6,0,7264,45.691,26.969,12322.4
989589550,0.634766,2.223,116.969,-0.0155533,0.027396,0.959195,0.512294,-0.325719,0.029625,-0.0865536,0.188426,0.106377,0,-0.6,0,7264,45.691,26.969,12322.4
989694306,0.634766,2.223,116.977,-0.0208275,0.0317096,0.960916,0.516276,-0.331692,0.0330949,-0.0587556,-0.00388579,-0.258114,0,-0.6,0,7264,45.691,26.969,12322.4
989795395,0.634766,2.223,116.987,-0.023515,0.0367423,0.962153,0.509666,-0.345785,0.0295218,-0.173036,-0.00115354,0.0765556,0,-0.6,0,7264,45.691,26.969,12322.4
989896569,0.634766,2.223,116.996,-0.0297708,0.0390773,0.962243,0.505713,-0.360652,0.031918,-0.147216,-0.00471445,-0.0083328,0,-0.6,0,7264,45.691,26.969,12322.4
989996927,0.634766,2.223,117.007,-0.0359853,0.0404373,0.96205,0.513214,-0.37928,0.032278,-0.134385,-0.135799,-0.056126,0,-0.6,0,7264,45.691,26.982,12328.3
990097266,0.634766,2.223,117.012,-0.0354252,0.0415241,0.96145,0.526534,-0.402446,0.0261908,-0.140927,-0.10847,0.0504828,0,-0.6,0,7264,45.691,26.982,12328.3
990197603,0.634766,2.223,117.012,-0.0294949,0.0412971,0.96091,0.537442,-0.429592,0.0294144,-0.183332,-0.178989,-0.130156,0,-0.6,0,7264,45.691,26.982,12328.3
990297867,0.634766,2.223,117.024,-0.0177499,0.03992,0.960616,0.540009,-0.446819,0.0202546,-0.109294,-0.0563854,-0.0963211,0,-0.6,0,7264,45.691,26.982,12328.3
990398177,0.634766,2.223,117.033,-0.00833914,0.0400095,0.960972,0.5371,-0.459567,0.0204122,-0.132358,0.0356766,-0.0186157,0,-0.6,0,7264,45.691,26.982,12328.3
990498617,0.634766,2.223,117.034,-0.00376599,0.0400564,0.961253,0.528134,-0.463317,0.00922816,-0.103355,0.169464,0.00339877,0,-3.9,0,7264,45.691,26.982,12328.3
990604824,0.634766,2.223,117.027,-0.0369954,0.0367251,0.961781,0.514963,-0.469301,0.00616065,-0.0971278,0.166662,0.346922,0,-3.9,0,7264,45.691,26.982,12328.3
990705203,0.634766,2.223,117.024,-0.197046,0.0300621,0.955884,0.540295,-0.508926,0.0217531,-0.144842,-0.702136,-0.15349,0,-3.9,0,7264,45.691,26.982,12328.3
990805563,0.634766,2.223,117.022,-0.340826,0.0252091,0.953339,0.725765,-0.636006,-0.0316603,0.0206281,-2.3517,0.187871,0,-3.9,0,7264,45.691,26.982,12328.3
990905919,0.634766,2.223,117.016,-0.426555,0.0210311,0.952849,1.03243,-0.839652,-0.077564,0.0763328,-3.448,1.27773,0,-3.9,0,7264,45.691,26.982,12328.3
991006244,0.634766,2.223,116.999,-0.453899,0.0164968,0.953914,1.41214,-1.09291,-0.0689288,0.0985871,-3.9906,1.96521,0,-3.9,0,7264,45.691,26.982,12328.3
991106606,0.634766,2.223,116.987,-0.423796,0.0143952,0.955108,1.81668,-1.35175,-0.0486278,0.216282,-3.9399,2.46438,0,-3.9,0,7264,45.691,26.982,12328.3
991208527,0.634766,2.223,116.971,-0.351206,0.0198724,0.953464,2.17719,-1.59018,0.00164181,0.126078,-3.60555,1.77635,0,-3.9,0,7264,45.691,26.982,12328.3
991314007,0.634766,2.223,116.971,-0.261538,0.0239596,0.952723,2.49174,-1.79471,0.0372719,0.017909,-2.59801,0.92181,0,-3.9,0,7264,45.691,26.982,12328.3
991414434,0.634766,2.223,116.981,-0.195267,0.0237065,0.953161,2.66057,-1.91294,0.0376586,-0.0060661,-1.74797,0.355332,0,-3.9,0,7264,45.691,26.982,12328.3
991514849,0.634767,2.223,116.989,-0.151339,0.0227446,0.954347,2.77814,-1.98873,0.0367511,-0.00451277,-1.13505,0.167623,0,-3.9,0,7220,45.687,27.063,12364.3
991615224,0.634767,2.223,117.005,-0.12247,0.0220705,0.955167,2.85931,-2.04283,0.0313244,0.0078651,-0.740588,-0.0674428,0,-3.9,0,7220,45.687,27.063,12364.3
991715555,0.634767,2.223,117.021,-0.105831,0.0236896,0.955428,2.93381,-2.08437,0.0280752,0.0537509,-0.639328,-0.191984,0,-3.9,0,7220,45.687,27.063,12364.3
991815901,0.634767,2.223,117.039,-0.0954151,0.0229697,0.956077,2.99487,-2.12461,0.0122593,-0.0216821,-0.559177,-0.273549,0,-3.9,0,7220,45.687,27.063,12364.3
991916242,0.634767,2.223,117.044,-0.0884176,0.023693,0.956687,3.04921,-2.14711,0.000500347,0.0633746,-0.35711,-0.133725,0,-3.9,0,7220,45.687,27.063,12364.3
992016601,0.634767,2.223,117.047,-0.0822966,0.02447,0.957109,3.08425,-2.15962,-0.000594061,0.0700288,-0.210176,-0.0218237,0,-3.9,0,7220,45.687,27.063,12364.3
992116979,0.634767,2.223,117.054,-0.0763189,0.0270945,0.957211,3.11551,-2.16977,0.000649221,-0.0144374,-0.246562,-0.207591,0,-3.9,0,7220,45.687,27.063,12364.3
992217367,0.634767,2.223,117.064,-0.0726631,0.0267546,0.95699,3.12983,-2.17674,-0.00109189,-0.0225224,-0.0971895,-0.31965,0,-3.9,0,7220,45.687,27.063,12364.3
992317729,0.634767,2.223,117.061,-0.0718815,0.0246807,0.956537,3.14718,-2.18317,-0.0131321,-0.0101787,-0.199039,-0.115189,0,-3.9,0,7220,45.687,27.063,12364.3
992418139,0.634767,2.223,117.055,-0.0726018,0.0225678,0.955969,3.16788,-2.18492,-0.0159921,0.0436751,-0.164489,-0.113036,0,-3.9,0,7220,45.687,27.063,12364.3
992520794,0.634767,2.223,117.054,-0.0715346,0.0224312,0.955957,3.18378,-2.19199,-0.0222216,-0.00969714,-0.165509,-0.102394,0,1.3,0,7220,45.719,25.198,11520.3
992627260,0.634767,2.223,117.049,-0.0392225,0.0229062,0.954362,3.20444,-2.18974,-0.017382,0.102823,-0.195171,0.224038,0,1.3,0,7220,45.719,25.198,11520.3
992727615,0.634767,2.223,117.045,0.168313,0.019571,0.958897,3.1828,-2.15849,0.0428295,0.131859,0.69737,0.334396,0,1.3,0,7220,45.719,25.198,11520.3
992827950,0.634767,2.223,117.045,0.34637,0.01805,0.961309,2.95503,-1.98113,0.00475803,0.0904758,3.17887,-0.00209969,0,1.3,0,7220,45.719,25.198,11520.3
992928353,0.634767,2.223,117.04,0.452652,0.0137256,0.959716,2.6013,-1.71927,-0.0765732,0.0889144,4.22613,1.49475,0,1.3,0,7220,45.719,25.198,11520.3
993028690,0.634767,2.223,117.001,0.501282,0.0157739,0.9588,2.1518,-1.39208,-0.12012,0.115817,4.97837,2.41289,0,1.3,0,7220,45.719,25.198,11520.3
993129068,0.634767,2.223,116.979,0.501132,0.0198716,0.958542,1.66191,-1.02829,-0.131199,0.132415,5.12336,3.2698,0,1.3,0,7220,45.719,25.198,11520.3
993230358,0.634767,2.223,116.956,0.477819,0.0272044,0.961614,1.16825,-0.661544,-0.0875592,0.160087,5.12889,3.10246,0,1.3,0,7220,45.719,25.198,11520.3
993335715,0.634767,2.223,116.929,0.428563,0.0330902,0.962726,0.611581,-0.258575,-0.0618504,0.114399,4.79703,2.72281,0,1.3,0,7220,45.719,25.198,11520.3
993436112,0.634767,2.223,116.913,0.345629,0.0357128,0.961243,0.202757,0.0256411,-0.0172031,-0.0158073,4.1335,2.21327,0,1.3,0,7220,45.719,25.198,11520.3
993537188,0.634767,2.223,116.914,0.259384,0.0382995,0.961089,-0.119212,0.245694,0.0236273,-0.0651454,3.25321,1.34491,0,1.3,0,7220,45.719,25.157,11501.5
993637549,0.634767,2.223,116.916,0.179484,0.0423251,0.961909,-0.344787,0.410699,0.0464088,0.0542181,2.34517,0.813975,0,1.3,0,7220,45.719,25.157,11501.5
993737895,0.634767,2.223,116.917,0.117188,0.0475943,0.962233,-0.501873,0.5167,0.059779,-0.0769397,1.56865,0.263259,0,1.3,0,7220,45.719,25.157,11501.5
993838243,0.634767,2.223,116.925,0.0737657,0.0505612,0.962245,-0.618033,0.576219,0.0655456,-0.220377,1.05991,0.188675,0,1.3,0,7220,45.719,25.157,11501.5
993938543,0.634767,2.223,116.939,0.0502396,0.0506776,0.962421,-0.697658,0.612475,0.0523149,-0.229273,0.672938,-0.409731,0,1.3,0,7220,45.719,25.157,11501.5
994038954,0.634767,2.223,116.935,0.0374632,0.04924,0.96204,-0.759393,0.633118,0.0465364,-0.241871,0.542113,0.0219619,0,1.3,0,7220,45.719,25.157,11501.5
994139296,0.634767,2.223,116.925,0.0310872,0.0450985,0.961746,-0.806204,0.641518,0.0393837,-0.244279,0.363343,0.0514105,0,1.3,0,7220,45.719,25.157,11501.5
994239665,0.634767,2.223,116.927,0.0270871,0.0414875,0.961062,-0.836595,0.652464,0.0409755,-0.152784,0.292652,-0.0329913,0,1.3,0,7220,45.719,25.157,11501.5
994340050,0.634767,2.223,116.934,0.0251072,0.0386732,0.960612,-0.85366,0.653277,0.0439845,-0.152209,0.201617,0.0679122,0,1.3,0,7220,45.719,25.157,11501.5
994440375,0.634767,2.223,116.935,0.024354,0.0370591,0.959989,-0.865072,0.661708,0.0413392,-0.0215335,0.23832,-0.180442,0,1.3,0,7220,45.719,25.157,11501.5
994540769,0.634767,2.223,116.94,0.0236149,0.0361397,0.960008,-0.878598,0.669553,0.0410912,-0.0564389,0.25576,0.0470065,0,-2.7,0,7220,45.719,25.157,11501.5
994641142,0.634767,2.223,116.943,0.0118346,0.0345051,0.960871,-0.881796,0.671716,0.0420927,-0.0822479,0.198239,-0.0321713,0,-2.7,0,7220,45.76,24.8,11348.5
994741510,0.634767,2.223,116.95,-0.15083,0.025906,0.956142,-0.874655,0.665311,0.0738501,-0.0245622,-0.133,0.222471,0,-2.7,0,7220,45.76,24.8,11348.5
994841869,0.634767,2.223,116.96,-0.331203,0.0264487,0.951812,-0.686549,0.549047,0.0555328,0.0698996,-2.28251,0.123963,0,-2.7,0,7220,45.76,24.8,11348.5
994942217,0.634767,2.223,116.956,-0.441267,0.030444,0.950009,-0.365059,0.343171,-0.000187896,0.101657,-3.59574,1.03858,0,-2.7,0,7220,45.76,24.8,11348.5
995042577,0.634767,2.223,116.945,-0.488475,0.0337761,0.949015,0.0358497,0.0576998,-0.0344844,-0.0513022,-4.19805,2.21739,0,-2.7,0,7220,45.76,24.8,11348.5
995142862,0.634767,2.223,116.93,-0.489941,0.0359415,0.948065,0.483963,-0.264537,-0.0130018,-0.0337081,-4.53792,2.61508,0,-2.7,0,7220,45.76,24.8,11348.5
995243225,0.634767,2.223,116.917,-0.434617,0.0362377,0.948375,0.918315,-0.56763,-0.00522879,0.0266804,-4.39654,2.18748,0,-2.7,0,7220,45.76,24.8,11348.5
995343571,0.634767,2.223,116.906,-0.346887,0.0345558,0.950042,1.28821,-0.826878,0.0284689,0.0437747,-3.60301,1.96007,0,-2.7,0,7220,45.76,24.8,11348.5
995443943,0.634767,2.223,116.904,-0.262659,0.036306,0.950548,1.55371,-1.01714,0.0512796,0.0219195,-2.67287,0.996031,0,-2.7,0,7220,45.76,24.8,11348.5
995544345,0.634767,2.223,116.902,-0.195082,0.0361288,0.951403,1.74146,-1.1583,0.0623721,-0.0437153,-1.92438,0.408167,0,-2.7,0,7220,45.76,24.8,11348.5
995644695,0.634767,2.223,116.909,-0.144096,0.0353405,0.952053,1.87288,-1.2548,0.0560754,-0.0619246,-1.17811,0.182428,0,-2.7,0,7220,45.65,28.441,12983.3
995745037,0.634767,2.223,116.918,-0.11045,0.0331938,0.953142,1.9602,-1.32734,0.0548493,-0.0669229,-0.737755,0.237623,0,-2.7,0,7220,45.65,28.441,12983.3
995845350,0.634767,2.223,116.914,-0.0884688,0.0299295,0.954011,2.02942,-1.37527,0.0437466,0.0052363,-0.482368,0.0537274,0,-2.7,0,7220,45.65,28.441,12983.3
995947108,0.634767,2.223,116.909,-0.0757673,0.0299057,0.954548,2.07196,-1.41411,0.0433081,-0.0941723,-0.299975,0.144664,0,-2.7,0,7220,45.65,28.441,12983.3
996053316,0.634767,2.223,116.906,-0.0685812,0.0306686,0.955052,2.11497,-1.44036,0.0464373,-0.0653309,-0.237566,-0.176191,0,-2.7,0,7220,45.65,28.441,12983.3
996153694,0.634768,2.223,116.894,-0.0652514,0.0316371,0.955007,2.14424,-1.46092,0.0363939,-0.0278526,-0.201062,-0.0623686,0,-2.7,0,7220,45.65,28.441,12983.3
996254050,0.634768,2.223,116.88,-0.0622741,0.0321691,0.955096,2.15821,-1.46964,0.035452,-0.0354807,-0.0815801,0.167855,0,-2.7,0,7220,45.65,28.441,12983.3
996354412,0.634768,2.223,116.868,-0.0606139,0.032085,0.955475,2.17703,-1.48329,0.0389395,-0.106219,-0.154898,0.150049,0,-2.7,0,7220,45.65,28.441,12983.3
996454750,0.634768,2.223,116.867,-0.0605812,0.0311637,0.955927,2.19052,-1.48793,0.0401518,0.000123446,-0.120436,0.135026,0,-2.7,0,7220,45.65,28.441,12983.3
996555148,0.634768,2.223,116.858,-0.0613339,0.0315667,0.956038,2.20417,-1.49232,0.0478247,-0.0542514,-0.190414,0.0074882,0,-0.3,0,7220,45.65,28.441,12983.3
996655518,0.634768,2.223,116.846,-0.0344029,0.0319228,0.954787,2.21803,-1.4936,0.0406428,0.0516782,-0.213087,0.32811,0,-0.3,0,7220,45.675,28.081,12826
996755930,0.634768,2.223,116.84,0.156873,0.0337238,0.960274,2.18644,-1.46902,0.0945057,-0.0344683,0.694159,0.293485,0,-0.3,0,7220,45.675,28.081,12826
996856291,0.634768,2.223,116.849,0.293376,0.0338691,0.963053,1.95536,-1.30338,0.0719949,-0.0427674,2.88307,0.282141,0,-0.3,0,7220,45.675,28.081,12826
996956680,0.634768,2.223,116.851,0.341425,0.0333668,0.962732,1.63889,-1.08795,0.0213294,-0.0603863,3.67687,0.964234,0,-0.3,0,7220,45.675,28.081,12826
997057033,0.634768,2.223,116.853,0.321066,0.0333808,0.961222,1.30204,-0.850566,0.0153591,-0.0245912,3.7649,1.29302,0,-0.3,0,7220,45.675,28.081,12826
997157409,0.634768,2.223,116.856,0.256787,0.0339846,0.960136,1.00177,-0.642571,0.0375955,-0.0403806,3.25211,1.02577,0,-0.3,0,7220,45.675,28.081,12826
997257753,0.634768,2.223,116.849,0.174562,0.034657,0.959479,0.766993,-0.48531,0.0479779,-0.0782331,2.48777,0.563189,0,-0.3,0,7220,45.675,28.081,12826
997358087,0.634768,2.223,116.843,0.110204,0.0336715,0.958824,0.596675,-0.367957,0.0629652,-0.0486791,1.80344,0.230489,0,-0.3,0,7220,45.675,28.081,12826
997458387,0.634768,2.223,116.849,0.0652116,0.0359473,0.958307,0.489661,-0.288201,0.0766268,-0.0119222,1.16792,0.263274,0,-0.3,0,7220,45.675,28.081,12826
997558747,0.634768,2.223,116.859,0.0355795,0.0389386,0.957786,0.403614,-0.239703,0.071739,-0.113546,0.813492,0.0132317,0,-0.3,0,7220,45.675,28.081,12826
997659101,0.634768,2.223,116.863,0.0146057,0.0394987,0.957453,0.343495,-0.214165,0.0708901,-0.150588,0.464936,0.208593,0,-0.3,0,7220,45.6,28.235,12875.2
997759445,0.634768,2.223,116.866,0.00374291,0.0379227,0.956877,0.294805,-0.200006,0.0770216,-0.242977,0.338259,-0.205054,0,-0.3,0,7220,45.6,28.235,12875.2
997859794,0.634768,2.223,116.867,-0.00415162,0.0346656,0.956648,0.261438,-0.185639,0.0735055,-0.0814545,0.250027,-0.0552432,0,-0.3,0,7220,45.6,28.235,12875.2
997960139,0.634768,2.223,116.87,-0.00910348,0.0321675,0.956667,0.23056,-0.169778,0.0677133,-0.0458832,0.243169,-0.0370115,0,-0.3,0,7220,45.6,28.235,12875.2
998060453,0.634768,2.223,116.87,-0.0131796,0.03145,0.956505,0.22085,-0.157481,0.0591147,0.00262694,0.0997564,-0.127549,0,-0.3,0,7220,45.6,28.235,12875.2
998160821,0.634768,2.223,116.857,-0.0146749,0.0306751,0.956459,0.214298,-0.1472,0.0527942,0.0371066,0.134704,-0.0201932,0,-0.3,0,7220,45.6,28.235,12875.2
998261168,0.634768,2.223,116.836,-0.0149655,0.031153,0.9561,0.197145,-0.140822,0.0320939,-0.0899573,0.278351,-0.134424,0,-0.3,0,7220,45.6,28.235,12875.2
998361529,0.634768,2.223,116.818,-0.0145041,0.0312087,0.955908,0.190135,-0.137305,0.0397766,-0.0674527,0.182401,0.320395,0,-0.3,0,7220,45.6,28.235,12875.2
998461879,0.634768,2.223,116.806,-0.0164113,0.0319491,0.955524,0.176574,-0.131056,0.0515748,-0.0805164,0.200649,0.0544417,0,-0.3,0,7220,45.6,28.235,12875.2
998562289,0.634768,2.223,116.798,-0.0164724,0.0314245,0.95536,0.17423,-0.130844,0.0520853,-0.0489296,0.142086,0.0976765,0,2.9,0,7220,45.6,28.235,12875.2
998662648,0.634768,2.223,116.794,-0.00114125,0.0320725,0.953583,0.172153,-0.132984,0.0623554,-0.0784691,0.0623983,0.218289,0,2.9,0,7220,45.675,26.434,12073.7
998763015,0.634768,2.223,116.799,0.151342,0.0269395,0.958186,0.15633,-0.120787,0.113179,-0.0103701,0.521368,0.344637,0,2.9,0,7220,45.675,26.434,12073.7
998863370,0.634768,2.223,116.814,0.301291,0.024021,0.961638,-0.0213811,0.00700629,0.0790809,-0.0417069,2.51237,0.0353166,0,2.9,0,7220,45.675,26.434,12073.7
998963730,0.634768,2.223,116.826,0.39333,0.0233382,0.962153,-0.305092,0.225166,0.0493999,0.210062,3.5491,1.30563,0,2.9,0,7220,45.675,26.434,12073.7
999066085,0.634768,2.223,116.839,0.435323,0.0279029,0.963662,-0.665536,0.488528,0.0481465,0.0388215,4.21401,1.73273,0,2.9,0,7220,45.675,26.434,12073.7
999171033,0.634768,2.223,116.859,0.416003,0.0301361,0.963272,-1.13802,0.826105,0.0561365,-0.0542421,4.39805,1.9744,0,2.9,0,7220,45.675,26.434,12073.7
999271370,0.634768,2.223,116.873,0.347815,0.0319568,0.962481,-1.49081,1.07077,0.093434,-0.0527285,3.87374,1.51963,0,2.9,0,7220,45.675,26.434,12073.7
999371717,0.634768,2.223,116.876,0.27036,0.0315269,0.961833,-1.75981,1.25792,0.102376,-0.0511012,3.03536,0.744882,0,2.9,0,7220,45.675,26.434,12073.7
999472137,0.634768,2.223,116.885,0.204155,0.0308614,0.961389,-1.96179,1.40283,0.102733,-0.00487135,2.31911,0.448719,0,2.9,0,7220,45.675,26.434,12073.7
999572523,0.634768,2.223,116.89,0.151398,0.0296764,0.961231,-2.10147,1.5065,0.0968959,0.0212935,1.60019,0.178388,0,2.9,0,7220,45.675,26.434,12073.7
999673794,0.634768,2.223,116.903,0.110338,0.0271085,0.960752,-2.20165,1.59157,0.0848985,0.0597764,1.17945,-0.114305,0,2.9,0,7175,45.662,27.344,12485.8
999774647,0.634768,2.223,116.914,0.082445,0.0243432,0.960417,-2.27159,1.64955,0.0654896,0.017002,0.865352,-0.112372,0,2.9,0,7175,45.662,27.344,12485.8
999874985,0.634768,2.223,116.914,0.0595539,0.0220778,0.959925,-2.31409,1.69606,0.0572326,0.0887314,0.517572,0.0146057,0,2.9,0,7175,45.662,27.344,12485.8
999975335,0.634768,2.223,116.911,0.0468287,0.0231164,0.959856,-2.33353,1.73429,0.0560594,0.150551,0.312306,-0.0924898,0,2.9,0,7175,45.662,27.344,12485.8
1000075673,0.634767,2.223,116.908,0.039984,0.0262772,0.960002,-2.34742,1.75944,0.0423436,0.115863,0.277995,-0.049046,0,2.9,0,7175,45.662,27.344,12485.8
1000176064,0.634767,2.223,116.911,0.0369419,0.0291283,0.960334,-2.35327,1.77756,0.0382197,0.0532278,0.19913,-0.0863155,0,2.9,0,7175,45.662,27.344,12485.8
1000276417,0.634767,2.223,116.916,0.0388096,0.0307854,0.960588,-2.36617,1.7938,0.0410227,0.0518124,0.279554,0.119509,0,2.9,0,7175,45.662,27.344,12485.8
1000376775,0.634767,2.223,116.924,0.0399956,0.0313763,0.960668,-2.3787,1.80815,0.0413341,-0.0069059,0.315805,-0.110532,0,2.9,0,7175,45.662,27.344,12485.8
1000477123,0.634767,2.223,116.935,0.0403522,0.0332737,0.960762,-2.39025,1.82378,0.0416464,0.0173599,0.296825,0.0513111,0,2.9,0,7175,45.662,27.344,12485.8
1000577510,0.634767,2.223,116.952,0.040095,0.0339288,0.960452,-2.40484,1.84207,0.0440569,0.0249535,0.37082,-0.232484,0,-4.3,0,7175,45.662,27.344,12485.8
1000677884,0.634767,2.223,116.966,-0.00181594,0.0310776,0.961126,-2.41326,1.85795,0.0446396,-0.00346942,0.330979,0.238597,0,-4.3,0,7175,45.662,27.344,12485.8
1000778264,0.634767,2.223,116.98,-0.19794,0.0201067,0.956043,-2.36828,1.83556,0.091222,0.098517,-0.701082,0.216074,0,-4.3,0,7131,45.658,27.139,12391.1
1000878625,0.634767,2.223,116.998,-0.357027,0.01285,0.956292,-2.13671,1.7005,0.0608787,0.208955,-2.80805,-0.0821518,0,-4.3,0,7131,45.658,27.139,12391.1
1000978928,0.634767,2.223,117.005,-0.455903,0.0102308,0.958607,-1.79219,1.49094,-0.0183752,0.195757,-3.79351,1.19049,0,-4.3,0,7131,45.658,27.139,12391.1
1001079278,0.634767,2.223,116.995,-0.499095,0.0088848,0.96098,-1.35844,1.22322,-0.0584058,0.282587,-4.49721,2.18585,0,-4.3,0,7131,45.658,27.139,12391.1
1001179661,0.634767,2.223,116.986,-0.498669,0.013433,0.960285,-0.88558,0.920117,-0.0641238,0.204522,-4.59066,2.62396,0,-4.3,0,7131,45.658,27.139,12391.1
1001280037,0.634767,2.223,116.975,-0.475645,0.0178819,0.958476,-0.416061,0.61035,-0.0468447,0.169893,-4.57447,2.62651,0,-4.3,0,7131,45.658,27.139,12391.1
1001380365,0.634767,2.223,116.961,-0.451611,0.0237483,0.955758,0.0201113,0.328183,-0.0202128,0.19548,-4.34475,2.31602,0,-4.3,0,7131,45.658,27.139,12391.1
1001480723,0.634767,2.223,116.946,-0.435667,0.0298123,0.953558,0.436574,0.0595435,-0.00892545,0.173814,-4.08343,2.16611,0,-4.3,0,7131,45.658,27.139,12391.1
1001581086,0.634767,2.223,116.943,-0.41781,0.0364421,0.95128,0.818443,-0.193599,0.00305575,0.14143,-3.79757,1.85657,0,-4.3,0,7131,45.658,27.139,12391.1
1001681379,0.634767,2.223,116.947,-0.401125,0.0432324,0.948689,1.18401,-0.449876,0.00776459,0.0628811,-3.69025,1.80316,0,-4.3,0,7131,45.658,27.139,12391.1
1001781774,0.634767,2.223,116.962,-0.388527,0.0532618,0.94493,1.51439,-0.703811,0.0245674,-0.182602,-3.48928,1.40476,0,-4.3,0,7131,45.645,26.701,12187.7
1001882151,0.634767,2.223,116.977,-0.378674,0.0614877,0.942357,1.82803,-0.950317,0.037281,-0.239292,-3.38477,1.2025,0,-4.3,0,7131,45.645,26.701,12187.7
1001982512,0.634767,2.223,116.996,-0.357083,0.0668921,0.941084,2.12052,-1.1883,0.036439,-0.247627,-3.23145,1.15889,0,-4.3,0,7131,45.645,26.701,12187.7
1002082901,0.634767,2.223,117.013,-0.312297,0.065463,0.942361,2.37389,-1.3971,0.0323355,-0.250732,-2.71463,1.08784,0,-4.3,0,7131,45.645,26.701,12187.7
1002183249,0.634767,2.223,117.031,-0.26503,0.0640692,0.943673,2.56146,-1.56806,0.0305199,-0.332426,-2.07202,0.544438,0,-4.3,0,7131,45.645,26.701,12187.7
1002283609,0.634768,2.223,117.044,-0.223199,0.0608855,0.94538,2.71171,-1.70975,0.0316506,-0.313675,-1.78552,0.365292,0,-4.3,0,7131,45.645,26.701,12187.7
1002383954,0.634768,2.223,117.058,-0.189143,0.0573754,0.946974,2.8257,-1.82038,0.032116,-0.297382,-1.35627,0.163293,0,-4.3,0,7131,45.645,26.701,12187.7
1002484345,0.634768,2.223,117.064,-0.162428,0.052059,0.948633,2.90783,-1.90413,0.0139064,-0.247278,-1.0485,-0.0416935,0,-4.3,0,7131,45.645,26.701,12187.7
1002584735,0.634768,2.223,117.062,-0.143645,0.046804,0.949967,2.97125,-1.96513,0.000545155,-0.153018,-0.775738,0.251408,0,-2.1,0,7131,45.645,26.701,12187.7
1002685100,0.634768,2.223,117.056,-0.117734,0.0432078,0.949429,3.01431,-2.01389,-0.00411324,-0.137089,-0.62089,-0.0817603,0,-2.1,0,7131,45.645,26.701,12187.7
1002785470,0.634768,2.223,117.048,0.045313,0.0409657,0.956195,3.04297,-2.03796,0.0504438,-0.0482688,-0.131421,0.369607,0,-2.1,0,7131,45.67,26.214,11971.9
1002885821,0.634768,2.223,117.046,0.183088,0.0416503,0.961235,2.9038,-1.94086,0.0336529,-0.0356405,1.82902,-0.362527,0,-2.1,0,7131,45.67,26.214,11971.9
1002986201,0.634768,2.223,117.041,0.245943,0.0421954,0.961138,2.66467,-1.78279,-0.0430094,-0.0905005,2.84909,0.154588,0,-2.1,0,7131,45.67,26.214,11971.9
1003086576,0.634768,2.223,117.042,0.247012,0.039813,0.957857,2.3802,-1.59937,-0.0650572,-0.191313,3.0851,0.893632,0,-2.1,0,7131,45.67,26.214,11971.9
1003186937,0.634768,2.223,117.044,0.200934,0.0340677,0.95551,2.10861,-1.41088,-0.0643707,-0.0637368,2.93487,0.542185,0,-2.1,0,7131,45.67,26.214,11971.9
1003287285,0.634768,2.223,117.025,0.129816,0.0248128,0.952642,1.88976,-1.25857,-0.0725058,-0.0730769,2.33518,0.355716,0,-2.1,0,7131,45.67,26.214,11971.9
1003387631,0.634768,2.223,117.004,0.073781,0.0238098,0.95363,1.74791,-1.14263,-0.0685104,0.0458526,1.56235,0.378777,0,-2.1,0,7131,45.67,26.214,11971.9
1003487993,0.634768,2.223,117.001,0.0249427,0.0263184,0.954644,1.63007,-1.04879,-0.041492,0.0135315,1.23151,0.378354,0,-2.1,0,7131,45.67,26.214,11971.9
1003588385,0.634768,2.223,117.006,-0.0153809,0.0326695,0.955504,1.56122,-0.984821,-0.0179062,0.0673685,0.660397,0.267665,0,-2.1,0,7131,45.67,26.214,11971.9
1003688723,0.634768,2.223,117.007,-0.041606,0.0387343,0.95531,1.51433,-0.941373,-0.000385813,-0.0114043,0.222084,-0.172604,0,-2.1,0,7131,45.67,26.214,11971.9
1003789078,0.634768,2.223,117.013,-0.061573,0.0436769,0.955319,1.48588,-0.929581,0.00690417,-0.0824754,0.0549096,-0.0424762,0,-2.1,0,7131,45.566,28.646,13052.8
1003889455,0.634768,2.223,117.021,-0.0724676,0.0446101,0.955194,1.4719,-0.93051,0.00536712,-0.152757,-0.0526643,-0.10829,0,-2.1,0,7131,45.566,28.646,13052.8
1003989827,0.634768,2.223,117.024,-0.0794315,0.0455494,0.955125,1.47467,-0.938341,0.00336315,-0.11472,-0.19576,0.0455111,0,-2.1,0,7131,45.566,28.646,13052.8
1004090195,0.634768,2.223,117.025,-0.0822049,0.0458282,0.954993,1.48191,-0.954831,0.00200204,-0.156768,-0.23196,0.136075,0,-2.1,0,7131,45.566,28.646,13052.8
1004190505,0.634768,2.223,117.019,-0.0827231,0.0442996,0.95411,1.50248,-0.959283,-0.00777194,-0.0332024,-0.257286,-0.0321057,0,-2.1,0,7131,45.566,28.646,13052.8
1004290921,0.634768,2.223,117.014,-0.0846806,0.0439697,0.953451,1.51528,-0.978838,-0.0148781,-0.12643,-0.223428,-0.0202336,0,-2.1,0,7131,45.566,28.646,13052.8
1004392513,0.634768,2.223,117.007,-0.0849317,0.0443422,0.953329,1.53536,-1.00534,-0.0177417,-0.117837,-0.261,0.219685,0,-2.1,0,7131,45.566,28.646,13052.8
1004495521,0.634768,2.223,116.995,-0.0827373,0.0442457,0.95349,1.5504,-1.03348,-0.0178382,-0.197843,-0.273963,0.0267533,0,-2.1,0,7131,45.566,28.646,13052.8
1004595918,0.634768,2.223,116.982,-0.0779145,0.0436336,0.954131,1.56242,-1.06377,-0.0161877,-0.216656,-0.2081,0.0731905,0,3.4,0,7131,45.566,28.646,13052.8
1004696352,0.634768,2.223,116.979,-0.0431222,0.0404934,0.953461,1.57811,-1.08916,-0.0085029,-0.107081,-0.181602,0.468393,0,3.4,0,7131,45.566,28.646,13052.8
1004796774,0.634768,2.223,116.977,0.158941,0.0337025,0.960068,1.54956,-1.07749,0.0379791,-0.0846397,0.747464,0.307687,0,3.4,0,7131,45.654,27.005,12328.9
1004897136,0.634768,2.223,116.989,0.338402,0.0284592,0.963371,1.32116,-0.92502,0.0135946,-0.0851197,3.03621,0.287874,0,3.4,0,7131,45.654,27.005,12328.9
1004997471,0.634768,2.223,116.991,0.433929,0.0211992,0.962284,0.976725,-0.682421,-0.0553864,-0.0738267,4.23504,1.18618,0,3.4,0,7131,45.654,27.005,12328.9
1005097818,0.634768,2.223,116.99,0.474203,0.0194722,0.961654,0.552318,-0.386455,-0.0952779,0.00705406,4.92412,1.99736,0,3.4,0,7131,45.654,27.005,12328.9
1005198175,0.634768,2.223,116.989,0.475656,0.0247772,0.96449,0.0928628,-0.0537652,-0.101386,0.0391993,4.93108,2.72237,0,3.4,0,7131,45.654,27.005,12328.9
1005298527,0.634768,2.223,116.977,0.45707,0.0327241,0.967227,-0.38157,0.27134,-0.0688925,-0.0539653,4.93927,2.85529,0,3.4,0,7131,45.654,27.005,12328.9
1005398894,0.634768,2.223,116.961,0.43188,0.0361422,0.968558,-0.826241,0.574359,-0.0374341,-0.0419247,4.62044,2.53331,0,3.4,0,7131,45.654,27.005,12328.9
1005499249,0.634768,2.223,116.96,0.407818,0.0392125,0.969443,-1.2347,0.851624,-0.00423422,-0.0459406,4.25192,2.22194,0,3.4,0,7131,45.654,27.005,12328.9
1005599564,0.634768,2.223,116.968,0.352652,0.038316,0.967603,-1.61352,1.09925,0.0142917,-0.0916327,3.92597,1.87434,0,3.4,0,7131,45.654,27.005,12328.9
1005699843,0.634768,2.223,116.975,0.285692,0.0335225,0.965226,-1.93342,1.30348,0.0383028,-0.163037,3.35102,1.16248,0,3.4,0,7131,45.654,27.005,12328.9
1005800194,0.634768,2.223,116.982,0.221026,0.0280128,0.962704,-2.17583,1.46927,0.0398133,-0.0285357,2.61947,0.679134,0,3.4,0,7131,45.67,25.332,11569.1
1005900543,0.634768,2.223,116.994,0.167385,0.0252561,0.961402,-2.35282,1.60115,0.0426341,0.0196612,2.00779,0.308419,0,3.4,0,7131,45.67,25.332,11569.1
1006000890,0.634768,2.223,117.009,0.127337,0.0247221,0.960738,-2.47883,1.69386,0.0408189,0.00659925,1.39213,0.13938,0,3.4,0,7131,45.67,25.332,11569.1
1006101253,0.634768,2.223,117.018,0.0976134,0.0233947,0.960469,-2.57153,1.77396,0.04161,0.0666145,1.09575,0.0401074,0,3.4,0,7131,45.67,25.332,11569.1
1006201608,0.634768,2.223,117.029,0.076672,0.0217087,0.960509,-2.63468,1.82802,0.0261856,0.0461012,0.767866,-0.119154,0,3.4,0,7131,45.67,25.332,11569.1
1006301958,0.634768,2.223,117.038,0.062998,0.0191607,0.959934,-2.67605,1.87692,0.0191932,0.0893074,0.591301,-0.232308,0,3.4,0,7131,45.67,25.332,11569.1
1006402311,0.634768,2.223,117.047,0.0537484,0.015852,0.959654,-2.69858,1.91218,0.0100915,0.121667,0.440905,-0.202621,0,3.4,0,7131,45.67,25.332,11569.1
1006502656,0.634768,2.223,117.058,0.0488625,0.0150989,0.959521,-2.70134,1.94863,0.0029081,0.231847,0.288288,-0.187189,0,3.4,0,7131,45.67,25.332,11569.1
1006604805,0.634768,2.223,117.065,0.0481045,0.0187219,0.959943,-2.69766,1.97575,-0.00925026,0.160979,0.266445,-0.306732,0,4,0,7131,45.67,25.332,11569.1
1006710897,0.634768,2.223,117.068,0.0595153,0.0227057,0.959728,-2.70362,2.01207,-0.00683856,0.159683,0.232304,0.448695,0,4,0,7131,45.67,25.332,11569.1
1006811258,0.634768,2.223,117.069,0.105971,0.0260422,0.961862,-2.7256,2.04299,0.00176146,0.0232999,0.66823,-0.458853,0,4,0,7131,45.67,25.332,11569.1
1006911607,0.634768,2.223,117.072,0.133027,0.031233,0.963096,-2.78972,2.09588,-0.0354979,-0.0332339,1.05615,-0.0492905,0,4,0,7087,45.659,28.682,13095.9
1007012282,0.634768,2.223,117.071,0.143417,0.0351158,0.962839,-2.87032,2.17163,-0.0384065,0.0662847,1.25475,0.144181,0,4,0,7087,45.659,28.682,13095.9
1007112668,0.634768,2.223,117.068,0.138904,0.0408819,0.963441,-2.95793,2.23387,-0.0383913,-0.0887436,1.23644,0.120413,0,4,0,7087,45.659,28.682,13095.9
1007213005,0.634768,2.223,117.068,0.122514,0.0452021,0.963052,-3.03524,2.27899,-0.0274114,-0.151829,1.00354,0.154286,0,4,0,7087,45.659,28.682,13095.9
1007313364,0.634768,2.223,117.072,0.107462,0.0450241,0.96273,-3.0972,2.31934,-0.0188828,-0.078476,0.903688,0.121603,0,4,0,7087,45.659,28.682,13095.9
1007413720,0.634768,2.223,117.069,0.0956687,0.0462308,0.962578,-3.15218,2.35167,-0.0184516,-0.147314,0.785429,-0.0854614,0,4,0,7087,45.659,28.682,13095.9
1007514106,0.634767,2.223,117.068,0.0874235,0.0489063,0.962545,-3.19785,2.36803,-0.0347001,-0.228708,0.598799,-0.0010998,0,4,0,7087,45.659,28.682,13095.9
1007614462,0.634767,2.223,117.072,0.0818531,0.0471189,0.961675,-3.24439,2.37894,-0.0298221,-0.194611,0.543468,0.143344,0,4,0,7087,45.659,28.682,13095.9
1007714807,0.634767,2.223,117.073,0.0786383,0.0450157,0.961159,-3.27843,2.39229,-0.017372,-0.1363,0.504761,0.0525373,0,4,0,7087,45.659,28.682,13095.9
1007815122,0.634767,2.223,117.076,0.0744273,0.0436232,0.960623,-3.31241,2.41267,-0.0217355,-0.0829167,0.48971,-0.10343,0,4,0,7087,45.659,28.682,13095.9
1007915495,0.634767,2.223,117.078,0.0711962,0.0429854,0.959935,-3.34439,2.43478,-0.0245085,-0.0678953,0.510076,-0.185622,0,4,0,7087,45.606,29.897,13634.8
1008015865,0.634767,2.223,117.083,0.0693779,0.0430002,0.95952,-3.36725,2.44833,-0.0265334,-0.0774324,0.387671,0.0561537,0,4,0,7087,45.606,29.897,13634.8
1008116287,0.634767,2.223,117.088,0.0677232,0.0428834,0.959405,-3.38516,2.47736,-0.0417109,0.217742,0.493241,-0.468354,0,4,0,7087,45.606,29.897,13634.8
1008216621,0.634767,2.223,117.088,0.0627415,0.0462264,0.959653,-3.4134,2.49789,-0.0353272,-0.0672228,0.445421,0.233437,0,4,0,7087,45.606,29.897,13634.8
1008316857,0.634767,2.223,117.085,0.0550222,0.0450138,0.959885,-3.45003,2.49899,-0.0245769,-0.255067,0.379659,0.104786,0,4,0,7087,45.606,29.897,13634.8
1008417207,0.634767,2.223,117.08,0.0442822,0.0423656,0.960181,-3.47565,2.49978,-0.0234811,-0.19711,0.282926,0.0911673,0,4,0,7087,45.606,29.897,13634.8
1008517524,0.634767,2.223,117.072,0.0366251,0.0383793,0.960252,-3.48872,2.4958,-0.032682,-0.20555,0.171778,0.161135,0,4,0,7087,45.606,29.897,13634.8
1008617932,0.634767,2.223,117.065,0.0341052,0.0366115,0.961358,-3.48721,2.49953,-0.0250236,-0.0337635,0.142845,0.126667,0,-2.8,0,7087,45.606,29.897,13634.8
1008718291,0.634767,2.223,117.054,-0.0128504,0.0400692,0.962976,-3.49028,2.50075,-0.0452351,-0.0673763,0.181037,0.199489,0,-2.8,0,7087,45.606,29.897,13634.8
1008818645,0.634767,2.223,117.042,-0.210892,0.0395366,0.955657,-3.43553,2.45607,0.00760258,-0.0935836,-0.828617,0.764818,0,-2.8,0,7087,45.606,29.897,13634.8
1008918995,0.634767,2.223,117.037,-0.375238,0.0402475,0.950386,-3.19121,2.26632,0.0179473,-0.14586,-3.05459,0.673558,0,-2.8,0,7087,45.639,25.151,11478.7
1009019334,0.634767,2.223,117.036,-0.47344,0.0351026,0.949744,-2.83353,1.99559,-0.038895,-0.135868,-4.24279,1.64329,0,-2.8,0,7087,45.639,25.151,11478.7
1009119687,0.634767,2.223,117.023,-0.520245,0.0297603,0.951143,-2.38085,1.6682,-0.0713137,-0.0784272,-4.74876,2.67759,0,-2.8,0,7087,45.639,25.151,11478.7
1009220093,0.634767,2.223,117.005,-0.531771,0.0207433,0.954515,-1.9063,1.32651,-0.103213,-0.0909078,-5.05437,2.39927,0,-2.8,0,7087,45.639,25.151,11478.7
1009320465,0.634767,2.223,116.979,-0.525668,-0.00164639,0.96412,-1.41796,1.00304,-0.151409,0.171848,-4.97404,2.72974,0,-2.8,0,7087,45.639,25.151,11478.7
1009420814,0.634767,2.223,116.944,-0.509233,-0.0192086,0.971148,-0.899179,0.694989,-0.161527,0.430723,-4.95822,2.95082,0,-2.8,0,7087,45.639,25.151,11478.7
1009521172,0.634767,2.223,116.912,-0.488145,-0.0104582,0.966194,-0.357289,0.398394,-0.11852,0.611024,-4.82411,3.44185,0,-2.8,0,7087,45.639,25.151,11478.7
1009621463,0.634767,2.223,116.887,-0.444323,0.00779567,0.959502,0.157969,0.101283,-0.0366288,0.454466,-4.55952,3.26375,0,-2.8,0,7087,45.639,25.151,11478.7
1009721759,0.634767,2.223,116.872,-0.400788,0.0275907,0.953618,0.585308,-0.171047,0.0318317,0.228232,-4.0826,2.31051,0,-2.8,0,7087,45.639,25.151,11478.7
1009822108,0.634767,2.223,116.871,-0.338016,0.042833,0.950209,0.937361,-0.4181,0.0641375,0.0519365,-3.47764,1.77218,0,-2.8,0,7087,45.639,25.151,11478.7
1009922442,0.634767,2.223,116.888,-0.273151,0.0523839,0.948414,1.21298,-0.624018,0.101466,-0.0742565,-2.81076,1.14696,0,-2.8,0,7087,45.667,24.98,11407.6
1010022791,0.634767,2.223,116.923,-0.2151,0.0587782,0.947476,1.4106,-0.782853,0.112012,-0.16405,-2.09561,0.260641,0,-2.8,0,7087,45.667,24.98,11407.6
1010123142,0.634767,2.223,116.961,-0.168795,0.0595185,0.947011,1.55345,-0.909161,0.102032,-0.240688,-1.62071,-0.0723515,0,-2.8,0,7087,45.667,24.98,11407.6
1010223550,0.634767,2.223,116.985,-0.132083,0.0579545,0.947111,1.64571,-1.00604,0.0840098,-0.322973,-1.07476,-0.317656,0,-2.8,0,7087,45.667,24.98,11407.6
1010323928,0.634767,2.223,117.021,-0.10735,0.0558391,0.947168,1.71261,-1.07924,0.0712421,-0.288844,-0.833822,-0.294179,0,-2.8,0,7087,45.667,24.98,11407.6
1010424273,0.634767,2.223,117.061,-0.0913215,0.0529185,0.947933,1.75782,-1.13962,0.0606236,-0.312859,-0.651526,-0.474693,0,-2.8,0,7087,45.667,24.98,11407.6
1010524600,0.634767,2.223,117.07,-0.0804307,0.0498647,0.94849,1.78696,-1.1796,0.03412,-0.236921,-0.38556,-0.215593,0,-2.8,0,7087,45.667,24.98,11407.6
1010625028,0.634767,2.223,117.062,-0.0776913,0.0448665,0.948989,1.80918,-1.2118,0.012852,-0.194208,-0.382956,-0.0699729,0,-0.9,0,7087,45.667,24.98,11407.6
1010725393,0.634767,2.223,117.058,-0.0641761,0.0391983,0.948034,1.8271,-1.23537,0.003667,-0.128379,-0.345719,-0.178161,0,-0.9,0,7087,45.667,24.98,11407.6
1010825760,0.634767,2.223,117.051,0.0627552,0.0341731,0.953312,1.83219,-1.23428,0.0247505,0.00316091,0.144744,-0.174004,0,-0.9,0,7087,45.667,24.98,11407.6
1010926131,0.634767,2.223,117.043,0.179135,0.0348289,0.957741,1.70951,-1.13341,-0.0185563,0.068784,1.66663,-0.138602,0,-0.9,0,7087,45.685,24.525,11204.2
1011026477,0.634767,2.223,117.033,0.240905,0.0385071,0.959155,1.49801,-0.98184,-0.0432565,-0.0245648,2.42307,0.573797,0,-0.9,0,7087,45.685,24.525,11204.2
1011126818,0.634767,2.223,117.033,0.241299,0.0416167,0.958856,1.22829,-0.808454,-0.0568587,-0.16082,2.8792,0.751884,0,-0.9,0,7087,45.685,24.525,11204.2
1011228889,0.634767,2.223,117.025,0.192591,0.0422346,0.957536,0.979941,-0.637022,-0.0594912,-0.115747,2.6202,0.54381,0,-0.9,0,7087,45.685,24.525,11204.2
1011334437,0.634767,2.223,117.016,0.116502,0.0392955,0.956271,0.752971,-0.487302,-0.0415236,-0.110631,1.83374,0.352295,0,-0.9,0,7087,45.685,24.525,11204.2
1011434861,0.634767,2.223,117.013,0.0637661,0.0380032,0.956584,0.627293,-0.404961,-0.0313164,-0.0477326,1.16013,0.252568,0,-0.9,0,7087,45.685,24.525,11204.2
1011536667,0.634767,2.223,117.018,0.0294642,0.037742,0.956941,0.550798,-0.343341,-0.0143187,0.0174185,0.684719,0.239937,0,-0.9,0,7087,45.685,24.525,11204.2
1011637221,0.634767,2.223,117.009,0.00870005,0.0398974,0.957012,0.482074,-0.298116,-0.0159403,-0.0130086,0.576167,0.0597376,0,-0.9,0,7087,45.685,24.525,11204.2
1011737673,0.634767,2.223,116.999,-0.0112039,0.0413003,0.956006,0.433153,-0.25994,-0.0242335,-0.0836867,0.375059,-0.046811,0,-0.9,0,7087,45.685,24.525,11204.2
1011838085,0.634767,2.223,117.001,-0.0235723,0.0384419,0.956077,0.388792,-0.254543,-0.0147974,-0.190686,0.171831,0.210607,0,-0.9,0,7087,45.685,24.525,11204.2
1011938451,0.634767,2.223,117.012,-0.0347081,0.0342024,0.955874,0.362947,-0.240124,0.00589859,-0.0127758,0.161743,0.63008,0,-0.9,0,7087,45.59,30.146,13743.6
1012038849,0.634767,2.223,117.019,-0.0439035,0.0343012,0.95546,0.357787,-0.232727,-0.000190909,-0.0324247,-0.0720859,-0.210854,0,-0.9,0,7087,45.59,30.146,13743.6
1012139197,0.634767,2.223,117.02,-0.0485348,0.0375535,0.955449,0.358978,-0.229568,-0.016317,-0.0541383,-0.106347,-0.0411501,0,-0.9,0,7087,45.59,30.146,13743.6
1012239578,0.634767,2.223,117.017,-0.0490892,0.0435621,0.955254,0.363274,-0.231289,-0.00828713,-0.108825,-0.087355,0.0193305,0,-0.9,0,7087,45.59,30.146,13743.6
1012339928,0.634767,2.223,117.015,-0.049819,0.0463971,0.954598,0.365291,-0.242348,-0.012093,-0.135984,-0.121722,-0.0532065,0,-0.9,0,7087,45.59,30.146,13743.6
1012440362,0.634767,2.223,117.011,-0.0535712,0.0412696,0.954755,0.365328,-0.264259,-0.0185052,-0.18793,-0.156634,0.231956,0,-0.9,0,7087,45.59,30.146,13743.6
1012540721,0.634767,2.223,116.998,-0.059891,0.0379605,0.954642,0.371011,-0.280635,-0.0153543,-0.18114,-0.188232,0.354058,0,-0.9,0,7087,45.59,30.146,13743.6
1012641138,0.634767,2.223,116.984,-0.0670691,0.033891,0.955052,0.385911,-0.30219,-0.0167913,-0.15169,-0.213298,-0.00180013,0,3.7,0,7087,45.59,30.146,13743.6
1012741509,0.634767,2.223,116.978,-0.0550893,0.0300195,0.954318,0.419363,-0.333158,-0.0159486,-0.0948394,-0.35926,0.472288,0,3.7,0,7087,45.59,30.146,13743.6
1012841919,0.634767,2.223,116.977,0.121266,0.0244777,0.958605,0.438412,-0.345331,0.0438518,0.0156377,0.131416,0.457997,0,3.7,0,7087,45.59,30.146,13743.6
1012942295,0.634767,2.223,116.987,0.30412,0.0214468,0.961903,0.26971,-0.220566,0.028936,0.00952117,2.5189,-0.488669,0,3.7,0,7087,45.59,30.146,13743.6
1013042659,0.634767,2.223,116.992,0.412846,0.0214664,0.961939,-0.0163762,-0.00868872,-0.0481092,0.0549452,3.62859,1.02206,0,3.7,0,7087,45.587,29.628,13506.5
1013143025,0.634767,2.223,116.993,0.455624,0.0225834,0.962374,-0.403711,0.275878,-0.0630417,0.0563808,4.3488,2.18306,0,3.7,0,7087,45.587,29.628,13506.5
1013243379,0.634767,2.223,116.991,0.449156,0.024811,0.962947,-0.813295,0.590513,-0.0439052,0.201738,4.47801,2.43151,0,3.7,0,7087,45.587,29.628,13506.5
1013343728,0.634767,2.223,116.979,0.43122,0.0326497,0.96598,-1.20943,0.879753,-0.0235288,0.0469968,4.40045,2.13076,0,3.7,0,7087,45.587,29.628,13506.5
1013444061,0.634767,2.223,116.982,0.399991,0.0370091,0.96792,-1.58451,1.15025,-0.0108372,0.0582799,4.15045,1.94757,0,3.7,0,7087,45.587,29.628,13506.5
1013544414,0.634767,2.223,116.991,0.336835,0.0358039,0.966703,-1.92208,1.3899,0.0144801,0.00942226,3.62075,1.53682,0,3.7,0,7087,45.587,29.628,13506.5
1013644756,0.634767,2.223,117.004,0.266472,0.0317034,0.9649,-2.18426,1.57491,0.0435348,-0.0650192,2.89853,0.876194,0,3.7,0,7087,45.587,29.628,13506.5
1013745107,0.634767,2.223,117.02,0.202679,0.0283668,0.963398,-2.37886,1.72018,0.0519361,0.0579879,2.19005,0.507787,0,3.7,0,7087,45.587,29.628,13506.5
1013845468,0.634767,2.223,117.036,0.151721,0.0294262,0.963072,-2.51358,1.82754,0.0543713,0.0503351,1.5412,0.160584,0,3.7,0,7087,45.587,29.628,13506.5
1013945806,0.634767,2.223,117.049,0.119664,0.0323422,0.962884,-2.61045,1.90294,0.0379023,0.00260247,1.17178,-0.470939,0,3.7,0,7087,45.587,29.628,13506.5
1014046156,0.634767,2.223,117.052,0.103648,0.0333891,0.963127,-2.68461,1.95725,0.0184507,-0.0566246,0.9136,-0.134527,0,3.7,0,7087,45.587,29.628,13506.5
1014146516,0.634767,2.223,117.05,0.0880157,0.0332998,0.963539,-2.74823,1.99816,0.00555576,-0.0721376,0.675113,0.0376498,0,3.7,0,7087,45.587,29.628,13506.5
1014246869,0.634767,2.223,117.046,0.0703944,0.033138,0.962929,-2.80018,2.03791,0.0038896,0.00397369,0.62974,0.0590404,0,3.7,0,7087,45.587,29.628,13506.5
1014347242,0.634767,2.223,117.039,0.0555858,0.0387355,0.963521,-2.83876,2.05936,-0.00564248,-0.0771423,0.432955,-0.396732,0,3.7,0,7087,45.587,29.628,13506.5
1014447603,0.634767,2.223,117.031,0.0520223,0.0417882,0.964455,-2.86432,2.06221,-0.0146982,-0.16088,0.273329,0.106599,0,3.7,0,7087,45.587,29.628,13506.5
1014547959,0.634767,2.223,117.025,0.0514767,0.0385398,0.964384,-2.89311,2.06819,-0.0213212,-0.128627,0.338773,-0.182391,0,3.7,0,7087,45.614,26.233,11965.9
1014648416,0.634767,2.223,117.021,0.0570937,0.035581,0.964696,-2.92412,2.07212,-0.0142576,-0.20623,0.408647,0.159664,0,-3.8,0,7087,45.614,26.233,11965.9
1014748742,0.634766,2.223,117.013,0.0441508,0.0274308,0.965367,-2.94329,2.07711,-0.00320749,-0.0744024,0.364603,0.114525,0,-3.8,0,7087,45.614,26.233,11965.9
1014849080,0.634766,2.223,117.013,-0.140497,0.0140614,0.960281,-2.91236,2.07897,0.0509947,0.21572,-0.48839,0.521971,0,-3.8,0,7087,45.614,26.233,11965.9
1014949438,0.634766,2.223,117.027,-0.339804,0.0114473,0.955856,-2.66905,1.93122,0.0435905,0.165079,-2.89809,0.271929,0,-3.8,0,7087,45.614,26.233,11965.9
1015049798,0.634766,2.223,117.032,-0.45091,0.00267415,0.959101,-2.29907,1.68861,-0.0189443,0.134996,-4.19441,1.21638,0,-3.8,0,7087,45.614,26.233,11965.9
1015150154,0.634766,2.223,117.027,-0.505948,-0.0132412,0.967532,-1.85382,1.40287,-0.0746278,0.15266,-4.82311,1.70866,0,-3.8,0,7087,45.614,26.233,11965.9
1015251693,0.634766,2.223,117.01,-0.511764,-0.0339941,0.978445,-1.35205,1.10769,-0.106279,0.43472,-4.99197,2.33883,0,-3.8,0,7087,45.614,26.233,11965.9
1015352273,0.634766,2.223,116.982,-0.490488,-0.0357411,0.977078,-0.844009,0.85605,-0.157012,0.756371,-4.72146,2.53704,0,-3.8,0,7087,45.614,26.233,11965.9
1015452620,0.634766,2.223,116.945,-0.485317,-0.0142822,0.965897,-0.311855,0.597695,-0.118516,0.791462,-4.61564,3.18975,0,-3.8,0,7087,45.614,26.233,11965.9
1015552990,0.634766,2.223,116.914,-0.475904,0.0134966,0.954389,0.176123,0.314698,-0.0896192,0.442028,-4.53745,2.72674,0,-3.8,0,7087,45.576,28.236,12868.8
1015653315,0.634766,2.223,116.897,-0.453384,0.0320012,0.949946,0.665045,-0.0035578,-0.0235119,0.225691,-4.55435,3.10068,0,-3.8,0,7087,45.576,28.236,12868.8
1015753600,0.634766,2.223,116.89,-0.421753,0.0477434,0.947549,1.08418,-0.286799,0.021336,0.0555849,-4.08693,2.15937,0,-3.8,0,7087,45.576,28.236,12868.8
1015853958,0.634766,2.223,116.895,-0.388393,0.0627563,0.943927,1.4429,-0.555724,0.049612,-0.127183,-3.61097,1.9026,0,-3.8,0,7087,45.576,28.236,12868.8
1015954303,0.634766,2.223,116.91,-0.354239,0.0717579,0.940946,1.76092,-0.815856,0.0706201,-0.311103,-3.40467,1.32945,0,-3.8,0,7087,45.576,28.236,12868.8
1016054612,0.634767,2.223,116.931,-0.301539,0.0772731,0.939801,2.02167,-1.0484,0.0830588,-0.42287,-2.89762,0.841699,0,-3.8,0,7087,45.576,28.236,12868.8
1016155950,0.634767,2.223,116.963,-0.24716,0.0799147,0.939337,2.22307,-1.2466,0.095129,-0.495463,-2.35441,0.581546,0,-3.8,0,7087,45.576,28.236,12868.8
1016256434,0.634767,2.223,116.99,-0.194297,0.0735414,0.940804,2.36297,-1.40271,0.0970066,-0.479353,-1.72645,0.115711,0,-3.8,0,7087,45.576,28.236,12868.8
1016359463,0.634767,2.223,117.016,-0.153072,0.0679645,0.941535,2.46841,-1.51532,0.0890563,-0.336425,-1.20925,0.100161,0,-3.8,0,7087,45.576,28.236,12868.8
1016459882,0.634767,2.223,117.046,-0.122631,0.0603708,0.941447,2.53329,-1.60113,0.0817827,-0.41196,-0.894058,-0.232725,0,-3.8,0,7087,45.576,28.236,12868.8
1016560221,0.634767,2.223,117.068,-0.104376,0.0569655,0.94021,2.57391,-1.66841,0.0500369,-0.35655,-0.716899,-0.932958,0,-3.8,0,7087,45.63,26.611,12142.6
1016660596,0.634767,2.223,117.079,-0.0932589,0.0597137,0.938254,2.59276,-1.72935,0.00096558,-0.469222,-0.469416,-0.335471,0,-2.4,0,7087,45.63,26.611,12142.6
1016760940,0.634767,2.223,117.085,-0.0732674,0.0597585,0.935692,2.60481,-1.78604,-0.028714,-0.410204,-0.42615,-0.322944,0,-2.4,0,7087,45.63,26.611,12142.6
1016861287,0.634767,2.223,117.081,0.0127294,0.0635067,0.94016,2.58948,-1.82661,-0.0457769,-0.461885,0.0629039,-0.169734,0,-2.4,0,7087,45.63,26.611,12142.6
1016961649,0.634767,2.223,117.075,0.0916539,0.0595563,0.94497,2.46901,-1.80796,-0.0562607,-0.596869,1.04914,-0.0159347,0,-2.4,0,7087,45.63,26.611,12142.6
1017062004,0.634767,2.223,117.062,0.126546,0.0548892,0.948225,2.29595,-1.73171,-0.0655463,-0.442351,1.7264,0.0747925,0,-2.4,0,7087,45.63,26.611,12142.6
1017162394,0.634767,2.223,117.045,0.112782,0.0540741,0.950739,2.10045,-1.64557,-0.0631012,-0.41142,1.81359,0.422938,0,-2.4,0,7087,45.63,26.611,12142.6
1017262760,0.634767,2.223,117.028,0.0732007,0.0570989,0.952622,1.93577,-1.5748,-0.0756147,-0.446453,1.54702,0.16388,0,-2.4,0,7087,45.63,26.611,12142.6
1017363076,0.634767,2.223,117.011,0.0245364,0.0498601,0.952941,1.79755,-1.5352,-0.0583174,-0.50486,1.08328,0.434994,0,-2.4,0,7087,45.63,26.611,12142.6
1017463454,0.634767,2.223,117.002,-0.0105579,0.0318769,0.952676,1.71653,-1.51427,-0.0729963,-0.253128,0.512816,0.0123018,0,-2.4,0,7087,45.63,26.611,12142.6
1017563821,0.634767,2.223,116.991,-0.0351932,0.014413,0.953013,1.66526,-1.49365,-0.0336696,-0.108963,0.289453,0.450071,0,-2.4,0,7087,45.63,26.611,12142.6
1017664216,0.634767,2.223,116.98,-0.0539699,0.0020009,0.953945,1.64386,-1.46602,-0.0300203,0.0811389,0.141149,0.181982,0,-2.4,0,6998,45.582,24.579,11203.6
1017764560,0.634767,2.223,116.972,-0.0616057,-0.00414675,0.95521,1.64588,-1.44358,-0.0251072,0.15265,-0.0280559,0.416016,0,-2.4,0,6998,45.582,24.579,11203.6
1017864909,0.634767,2.223,116.969,-0.0636338,-0.00256207,0.957272,1.65547,-1.40744,-0.00325029,0.260855,-0.0733771,0.324596,0,-2.4,0,6998,45.582,24.579,11203.6
1017965268,0.634767,2.223,116.971,-0.0613708,-0.00236966,0.958136,1.66486,-1.39208,0.00981629,0.0951458,-0.138832,0.056191,0,-2.4,0,6998,45.582,24.579,11203.6
1018065635,0.634767,2.223,116.976,-0.0609522,-0.00124475,0.958137,1.68633,-1.37364,0.00345227,0.210506,-0.224386,-0.119257,0,-2.4,0,6998,45.582,24.579,11203.6
1018166031,0.634767,2.223,116.978,-0.0645431,0.00203469,0.957722,1.70688,-1.35644,-0.00536206,0.220537,-0.181052,0.0384693,0,-2.4,0,6998,45.582,24.579,11203.6
1018266407,0.634767,2.223,116.983,-0.0668807,0.0102456,0.957743,1.72305,-1.343,-0.0122876,0.107259,-0.0772041,0.0526065,0,-2.4,0,6998,45.582,24.579,11203.6
1018366772,0.634767,2.223,116.991,-0.072565,0.0191584,0.957709,1.74459,-1.34299,0.0111786,0.0449374,-0.186058,0.234538,0,-2.4,0,6998,45.582,24.579,11203.6
1018467149,0.634767,2.223,116.999,-0.0770916,0.0193436,0.958695,1.76711,-1.35262,0.0191352,-0.000185529,-0.316408,0.0415435,0,-2.4,0,6998,45.582,24.579,11203.6
1018567513,0.634767,2.223,117.002,-0.078685,0.0173825,0.959799,1.81511,-1.37344,0.0101176,0.00720551,-0.458709,-0.00599792,0,-2.4,0,6998,45.582,24.579,11203.6
1018667908,0.634767,2.223,117.005,-0.0745186,0.0160387,0.960692,1.84462,-1.38224,0.000634154,0.00938713,-0.287773,-0.130971,0,-0.5,0,6998,45.615,28.074,12806
1018768321,0.634767,2.223,117.007,-0.0525705,0.0145985,0.959989,1.87525,-1.39123,0.00394775,0.00681624,-0.278267,0.272629,0,-0.5,0,6998,45.615,28.074,12806
