timestamp,lat,log,alt,roll,pitch,yaw,vel_x,vel_y,vel_z,acc_x,acc_y,acc_z,act_vx,act_vy,act_yr,capacity,vol,cur,power
4422614769,0.634769,2.223,97.9695,-0.0181775,0.0212724,0.865724,0.0515634,0.0520322,-0.00908013,0.126297,0.0595591,0.205855,-2.4,-3.8,0,12639,49.645,25.348,12584
4422715179,0.634769,2.223,97.965,-0.0173326,0.0233283,0.865834,0.0531414,0.0594633,-0.00432188,0.0935175,0.0702841,-0.0461468,-2.4,-3.8,0,12639,49.645,25.348,12584
4422815604,0.634769,2.223,97.9516,-0.0227071,0.0283674,0.865221,0.0568914,0.0641004,-0.0162608,0.118002,0.0164546,-0.0222362,-2.4,-3.8,0,12639,49.645,25.348,12584
4422915952,0.634769,2.223,97.9397,-0.120715,0.0956562,0.858571,0.060722,0.0592335,0.0184312,-0.117094,-0.243384,-0.0750396,-2.4,-3.8,0,12639,49.645,25.348,12584
4423016411,0.634769,2.223,97.9379,-0.239501,0.165226,0.844626,0.102998,-0.110323,-0.0179784,-1.02393,-1.53583,0.12848,-2.4,-3.8,0,12639,49.645,25.348,12584
4423116804,0.634769,2.223,97.9294,-0.323124,0.211589,0.830921,0.1867,-0.407235,-0.0315814,-1.56279,-2.43519,1.16142,-2.4,-3.8,0,12639,49.631,25.39,12601.3
4423217143,0.634769,2.223,97.9236,-0.362323,0.231137,0.824567,0.304275,-0.77474,-0.0207277,-1.74112,-2.95377,1.69701,-2.4,-3.8,0,12639,49.631,25.39,12601.3
4423321080,0.634769,2.223,97.9375,-0.373146,0.23895,0.822647,0.436076,-1.18325,-0.00467284,-1.97711,-3.23683,1.71031,-2.4,-3.8,0,12639,49.631,25.39,12601.3
4423421450,0.634769,2.223,97.9503,-0.370237,0.239813,0.823423,0.566253,-1.59266,0.00352073,-1.92534,-3.19466,1.84198,-2.4,-3.8,0,12639,49.631,25.39,12601.3
4423521812,0.634769,2.223,97.9444,-0.364262,0.240634,0.82373,0.682618,-1.99198,0.0107202,-1.96948,-3.06735,1.68995,-2.4,-3.8,0,12639,49.631,25.39,12601.3
4423622157,0.634769,2.223,97.9316,-0.358561,0.239605,0.824674,0.790359,-2.38318,0.0122249,-1.87293,-2.80988,1.88703,-2.4,-3.8,0,12639,49.631,25.39,12601.3
4423722497,0.634769,2.223,97.9223,-0.344134,0.232204,0.827461,0.897292,-2.76471,0.00970583,-1.8507,-2.84817,1.62269,-2.4,-3.8,0,12639,49.631,25.39,12601.3
4423822842,0.634769,2.223,97.92,-0.305593,0.210129,0.835117,1.0014,-3.12421,0.0194863,-1.6864,-2.66493,1.33829,-2.4,-3.8,0,12639,49.631,25.39,12601.3
4423923195,0.634769,2.223,97.9182,-0.262483,0.184099,0.84307,1.09079,-3.42923,0.0278734,-1.50117,-2.26023,0.938452,-2.4,-3.8,0,12639,49.631,25.39,12601.3
4424023538,0.634769,2.223,97.9148,-0.220395,0.157304,0.849875,1.15272,-3.67514,0.0382449,-1.21108,-1.73618,0.777122,-2.4,-3.8,0,12639,49.631,25.39,12601.3
4424123886,0.634769,2.223,97.9358,-0.185252,0.132723,0.854835,1.2085,-3.86405,0.0419735,-0.916125,-1.49497,0.0899917,-2.4,-3.8,0,12639,49.631,25.39,12601.3
4424224300,0.634769,2.223,97.9533,-0.157708,0.113789,0.858162,1.25249,-4.00033,0.0386108,-0.623848,-1.06163,0.0781283,-2.4,-3.8,0,12639,49.651,24.981,12403.3
4424324710,0.634769,2.223,97.9661,-0.134695,0.102894,0.859946,1.28637,-4.10588,0.0316594,-0.526369,-0.73853,0.070311,-2.4,-3.8,0,12639,49.651,24.981,12403.3
4424425027,0.634769,2.223,97.9791,-0.118686,0.0944439,0.860878,1.31065,-4.18353,0.0169526,-0.37817,-0.569167,-0.0441796,-2.4,-3.8,0,12639,49.651,24.981,12403.3
4424525376,0.634769,2.223,97.9734,-0.105479,0.0861757,0.861931,1.32713,-4.2444,0.00791061,-0.312624,-0.440908,0.0178447,-2.4,-3.8,0,12639,49.651,24.981,12403.3
4424625781,0.634769,2.223,97.9568,-0.0942095,0.0790485,0.862875,1.33927,-4.29015,0.000267565,-0.25351,-0.271091,0.125536,1.7,1.5,0,12639,49.651,24.981,12403.3
4424726141,0.634769,2.223,97.9502,-0.0775398,0.0616537,0.865513,1.34962,-4.32016,0.00713892,-0.105243,-0.158777,0.371721,1.7,1.5,0,12639,49.651,24.981,12403.3
4424826513,0.634769,2.223,97.9465,0.084295,-0.0773784,0.865978,1.35332,-4.33012,0.0618156,0.205521,0.098829,0.577916,1.7,1.5,0,12639,49.651,24.981,12403.3
4424926842,0.634769,2.223,97.9569,0.248954,-0.1903,0.845325,1.31074,-4.03941,0.0696825,1.98892,2.44129,0.0965237,1.7,1.5,0,12639,49.651,24.981,12403.3
4425027108,0.634769,2.223,97.9579,0.343737,-0.254188,0.824511,1.22046,-3.62697,-0.0288332,2.53317,3.3546,1.03328,1.7,1.5,0,12639,49.651,24.981,12403.3
4425127400,0.634769,2.223,97.9473,0.391404,-0.287774,0.811248,1.11525,-3.07372,-0.063686,3.13601,3.87533,2.49746,1.7,1.5,0,12639,49.651,24.981,12403.3
4425227794,0.634769,2.223,97.9241,0.407917,-0.300179,0.806579,0.990749,-2.47611,-0.1029,3.23485,4.12118,2.71862,1.7,1.5,0,12594,49.585,28.09,13928.4
4425328159,0.634769,2.223,97.9088,0.408058,-0.299625,0.806194,0.866917,-1.84812,-0.109975,3.26426,4.18648,3.26934,1.7,1.5,0,12594,49.585,28.09,13928.4
4425428516,0.634769,2.223,97.8983,0.401694,-0.292891,0.808289,0.746693,-1.20865,-0.0743634,3.415,4.15766,3.28949,1.7,1.5,0,12594,49.585,28.09,13928.4
4425528868,0.634769,2.223,97.8903,0.390472,-0.282056,0.811633,0.619708,-0.591205,-0.0525376,3.18962,4.03357,3.11633,1.7,1.5,0,12594,49.585,28.09,13928.4
4425629213,0.634769,2.223,97.8866,0.369495,-0.265063,0.817606,0.49243,0.0023365,-0.0343731,3.12019,4.00247,2.64011,1.7,1.5,0,12594,49.585,28.09,13928.4
4425729517,0.634769,2.223,97.8951,0.313228,-0.221453,0.833177,0.369648,0.548204,-0.00717581,2.78179,3.68191,2.44208,1.7,1.5,0,12594,49.585,28.09,13928.4
4425829894,0.634769,2.223,97.9028,0.242724,-0.172235,0.847319,0.27564,1.00739,0.0270707,2.5473,3.02136,1.53511,1.7,1.5,0,12594,49.585,28.09,13928.4
4425930238,0.634769,2.223,97.9318,0.176798,-0.124794,0.857663,0.18066,1.38466,0.0413795,1.57892,2.1125,0.639941,1.7,1.5,0,12594,49.585,28.09,13928.4
4426030598,0.634769,2.223,97.9629,0.126085,-0.0891263,0.862963,0.125358,1.60189,0.0428912,1.13256,1.49007,0.194567,1.7,1.5,0,12594,49.585,28.09,13928.4
4426130944,0.634769,2.223,97.9759,0.0895101,-0.0621892,0.865456,0.0843612,1.76589,0.0323719,0.859507,1.09481,7.689e-06,1.7,1.5,0,12594,49.585,28.09,13928.4
4426231302,0.634769,2.223,97.9973,0.0624608,-0.0426469,0.866576,0.0516955,1.88369,0.0226257,0.588547,0.791236,-0.0853319,1.7,1.5,0,12594,49.544,25,12386
4426331641,0.634769,2.223,98.0195,0.0452217,-0.0321197,0.866502,0.0306871,1.97003,0.0137997,0.505644,0.55444,-0.235514,1.7,1.5,0,12594,49.544,25,12386
4426431941,0.634769,2.223,98.0398,0.0332462,-0.0250377,0.866318,0.011207,2.03238,0.00345659,0.355156,0.452578,-0.263159,1.7,1.5,0,12594,49.544,25,12386
4426532376,0.634769,2.223,98.0551,0.023821,-0.0218571,0.866109,-0.000380784,2.0752,-0.00412464,0.331446,0.293397,-0.259762,1.7,1.5,0,12594,49.544,25,12386
4426632744,0.634769,2.223,98.0685,0.0196808,-0.019032,0.866061,-0.0120804,2.10018,-0.018855,0.26446,0.243484,-0.262148,0.7,4.5,0,12594,49.544,25,12386
4426733014,0.634769,2.223,98.0788,0.0394075,-0.00759385,0.865268,-0.0162044,2.13374,-0.0225974,0.401573,0.215902,0.367413,0.7,4.5,0,12594,49.544,25,12386
4426833280,0.634769,2.223,98.086,0.168994,0.0464518,0.87025,-0.0673226,2.1707,-0.0031979,-0.0115576,0.997393,-0.404901,0.7,4.5,0,12594,49.544,25,12386
4426933582,0.634769,2.223,98.0787,0.285313,0.091276,0.881399,-0.276871,2.24531,-0.0799048,-0.668836,2.31246,0.136566,0.7,4.5,0,12594,49.544,25,12386
4427033858,0.634769,2.223,98.057,0.357715,0.114189,0.890936,-0.605805,2.36878,-0.0967945,-0.86013,3.18419,1.51777,0.7,4.5,0,12594,49.544,25,12386
4427134137,0.634769,2.223,98.052,0.392829,0.121153,0.895335,-0.994233,2.51172,-0.0759258,-1.11292,3.58717,1.66154,0.7,4.5,0,12594,49.544,25,12386
4427234482,0.634769,2.223,98.0499,0.391311,0.112646,0.894128,-1.39564,2.6709,-0.0680895,-1.00172,3.76428,1.76328,0.7,4.5,0,12594,49.556,28.513,14129.9
4427334837,0.634769,2.223,98.0459,0.344604,0.0933364,0.888147,-1.77016,2.82488,-0.0385576,-0.846256,3.47672,1.58885,0.7,4.5,0,12594,49.556,28.513,14129.9
4427435187,0.634769,2.223,98.0373,0.292639,0.0744927,0.882842,-2.06858,2.9591,-0.0299024,-0.58956,2.96681,1.0082,0.7,4.5,0,12594,49.556,28.513,14129.9
4427535491,0.634769,2.223,98.0373,0.239398,0.0568733,0.877833,-2.30212,3.06746,-0.0204077,-0.408388,2.32736,0.693746,0.7,4.5,0,12594,49.556,28.513,14129.9
4427635871,0.634769,2.223,98.037,0.196776,0.0426756,0.874239,-2.48334,3.15927,-0.0230037,-0.159623,1.8902,0.391326,0.7,4.5,0,12594,49.556,28.513,14129.9
4427736252,0.634769,2.223,98.0427,0.161911,0.0306168,0.871949,-2.62332,3.22601,-0.0258674,-0.142306,1.43582,0.200788,0.7,4.5,0,12594,49.556,28.513,14129.9
4427836638,0.634769,2.223,98.0463,0.134656,0.0214256,0.870275,-2.72781,3.2859,-0.0296319,-0.0151003,1.18534,-0.0200206,0.7,4.5,0,12594,49.556,28.513,14129.9
4427937037,0.634769,2.223,98.0464,0.112058,0.0145442,0.868886,-2.80428,3.33063,-0.0418875,0.07763,0.883261,0.010396,0.7,4.5,0,12594,49.556,28.513,14129.9
4428037384,0.634769,2.223,98.0423,0.0952298,0.0110172,0.868262,-2.85609,3.36664,-0.0353663,0.160763,0.65355,0.238303,0.7,4.5,0,12594,49.556,28.513,14129.9
4428137767,0.634769,2.223,98.0392,0.0825179,0.0111607,0.867878,-2.88597,3.39877,-0.0310647,0.203645,0.458085,0.0832054,0.7,4.5,0,12594,49.556,28.513,14129.9
4428238149,0.634769,2.223,98.0376,0.0745723,0.0121001,0.867556,-2.9101,3.42582,-0.0320365,0.22778,0.396406,0.0214437,0.7,4.5,0,12594,49.584,27.212,13492.8
4428338478,0.634769,2.223,98.0433,0.0685411,0.0133384,0.868086,-2.92007,3.44796,-0.0284599,0.216506,0.310111,-0.171709,0.7,4.5,0,12594,49.584,27.212,13492.8
4428438803,0.634769,2.223,98.055,0.0648807,0.0145139,0.868053,-2.93894,3.45261,-0.039245,0.0482001,0.265664,-0.142023,0.7,4.5,0,12594,49.584,27.212,13492.8
4428539168,0.634769,2.223,98.0557,0.0626775,0.0118746,0.867745,-2.9475,3.4664,-0.0231194,0.132041,0.281466,0.0312627,0.7,4.5,0,12594,49.584,27.212,13492.8
4428639562,0.634769,2.223,98.054,0.062876,0.0100617,0.867967,-2.95022,3.47267,-0.0306636,0.125965,0.189185,-0.211225,-0.9,-0.8,0,12594,49.584,27.212,13492.8
4428739924,0.634769,2.223,98.0474,0.0315513,0.0160171,0.869097,-2.96092,3.48238,-0.0357867,0.0981564,0.31912,0.377614,-0.9,-0.8,0,12594,49.584,27.212,13492.8
4428840346,0.634769,2.223,98.0398,-0.167926,0.0687047,0.860244,-2.92692,3.45723,0.0348387,0.0268238,-0.6478,0.349161,-0.9,-0.8,0,12594,49.584,27.212,13492.8
4428940709,0.634769,2.223,98.05,-0.328333,0.115599,0.848024,-2.74666,3.22744,0.0029815,-0.621782,-2.94455,0.0599439,-0.9,-0.8,0,12594,49.584,27.212,13492.8
4429042488,0.634769,2.223,98.0546,-0.423373,0.143021,0.838753,-2.50065,2.88313,-0.0699936,-0.959219,-3.94646,1.26953,-0.9,-0.8,0,12594,49.584,27.212,13492.8
4429148619,0.634769,2.223,98.0633,-0.470911,0.155764,0.834664,-2.18964,2.44364,-0.0814984,-1.07428,-4.48508,2.34921,-0.9,-0.8,0,12594,49.584,27.212,13492.8
4429254857,0.634769,2.223,98.0446,-0.474704,0.157261,0.836132,-1.80293,1.88677,-0.101768,-1.26801,-4.72163,2.35964,-0.9,-0.8,0,12594,49.537,26.552,13153.1
4429355255,0.634769,2.223,98.0195,-0.463677,0.158511,0.837719,-1.47265,1.41876,-0.0982751,-1.20441,-4.61221,2.67253,-0.9,-0.8,0,12594,49.537,26.552,13153.1
4429457116,0.634769,2.223,98.0132,-0.450196,0.164136,0.837307,-1.1572,0.955973,-0.0708124,-1.25788,-4.52974,2.61383,-0.9,-0.8,0,12594,49.537,26.552,13153.1
4429557513,0.634769,2.223,97.9976,-0.407701,0.161693,0.840789,-0.866761,0.506527,-0.06849,-1.35695,-4.29511,2.2253,-0.9,-0.8,0,12594,49.537,26.552,13153.1
4429657975,0.634769,2.223,97.98,-0.329918,0.14934,0.847713,-0.623459,0.111382,-0.0474429,-1.20124,-3.67133,1.87778,-0.9,-0.8,0,12594,49.537,26.552,13153.1
4429758340,0.634769,2.223,97.9643,-0.252624,0.134473,0.853235,-0.445949,-0.202139,-0.0344618,-1.06672,-2.82884,1.08982,-0.9,-0.8,0,12594,49.537,26.552,13153.1
4429858711,0.634769,2.223,97.9577,-0.185508,0.1196,0.856529,-0.31873,-0.440057,-0.0274766,-0.834756,-2.0687,0.765698,-0.9,-0.8,0,12594,49.537,26.552,13153.1
4429959034,0.634769,2.223,97.9435,-0.133374,0.107035,0.858654,-0.23392,-0.61656,-0.0236003,-0.705113,-1.46248,0.510878,-0.9,-0.8,0,12594,49.537,26.552,13153.1
4430059394,0.634769,2.223,97.9296,-0.0954663,0.0947285,0.860525,-0.182692,-0.75258,-0.029592,-0.619171,-0.948853,0.410243,-0.9,-0.8,0,12594,49.537,26.552,13153.1
4430159752,0.634769,2.223,97.9174,-0.0695441,0.0844235,0.861955,-0.144269,-0.852537,-0.0228197,-0.443851,-0.671401,0.317223,-0.9,-0.8,0,12594,49.537,26.552,13153.1
4430260113,0.634769,2.223,97.9172,-0.0532216,0.0776496,0.863051,-0.117533,-0.927523,-0.0187415,-0.397517,-0.512434,0.186271,-0.9,-0.8,0,12594,49.537,26.552,13153.1
4430360481,0.634769,2.223,97.9169,-0.0445538,0.0716253,0.864028,-0.10594,-0.978682,-0.00496131,-0.327437,-0.28408,-0.046578,-0.9,-0.8,0,12594,49.636,26.212,13010.6
4430460861,0.634769,2.223,97.9228,-0.0405978,0.0683572,0.864595,-0.0991635,-1.00804,-0.00615823,-0.225626,-0.19548,0.331488,-0.9,-0.8,0,12594,49.636,26.212,13010.6
4430561259,0.634769,2.223,97.9379,-0.0378789,0.0658883,0.865052,-0.0980655,-1.04089,0.0147851,-0.323126,-0.223426,-0.167993,-0.9,-0.8,0,12594,49.636,26.212,13010.6
4430661635,0.634769,2.223,97.9488,-0.0369258,0.0630203,0.865359,-0.107896,-1.06082,0.00546034,-0.300134,-0.119701,-0.300087,-4.9,4.1,0,12594,49.636,26.212,13010.6
4430761996,0.634769,2.223,97.9636,-0.0178332,0.0750196,0.866705,-0.112143,-1.07046,0.0182804,-0.0998645,-0.164903,0.621557,-4.9,4.1,0,12594,49.636,26.212,13010.6
4430862357,0.634769,2.223,97.9765,0.117231,0.159539,0.880734,-0.156355,-1.07574,0.0494565,-0.632745,0.494692,-0.272501,-4.9,4.1,0,12594,49.636,26.212,13010.6
4430962682,0.634769,2.223,97.9853,0.248146,0.226703,0.897584,-0.386886,-1.05263,-0.0246504,-1.50786,1.94657,0.0614851,-4.9,4.1,0,12594,49.636,26.212,13010.6
4431063054,0.634769,2.223,97.9842,0.325672,0.2711,0.910204,-0.760763,-1.00367,-0.0476662,-1.9693,2.86362,1.58895,-4.9,4.1,0,12594,49.636,26.212,13010.6
4431163400,0.634768,2.223,97.9866,0.358896,0.292869,0.916114,-1.22435,-0.943345,-0.0532118,-2.29623,3.36776,2.06806,-4.9,4.1,0,12594,49.636,26.212,13010.6
4431263701,0.634768,2.223,97.9847,0.361238,0.299692,0.916249,-1.70231,-0.882752,-0.0378381,-2.30835,3.39865,2.25275,-4.9,4.1,0,12594,49.636,26.212,13010.6
4431364095,0.634768,2.223,97.9867,0.349634,0.301396,0.915359,-2.18239,-0.825126,-0.0281625,-2.42727,3.46757,1.96371,-4.9,4.1,0,12549,49.579,25.141,12464.7
4431464455,0.634768,2.223,97.9939,0.334474,0.305044,0.914688,-2.63393,-0.778691,-0.015937,-2.33841,3.20503,1.7666,-4.9,4.1,0,12549,49.579,25.141,12464.7
4431564773,0.634768,2.223,98.0067,0.315904,0.308311,0.914668,-3.06982,-0.751502,-0.00820178,-2.23008,2.90498,1.88257,-4.9,4.1,0,12549,49.579,25.141,12464.7
4431665108,0.634768,2.223,98.0183,0.297381,0.312174,0.914423,-3.48428,-0.74264,-0.00573921,-2.3241,2.76226,1.49033,-4.9,4.1,0,12549,49.579,25.141,12464.7
4431765428,0.634768,2.223,98.032,0.280897,0.3148,0.913135,-3.87807,-0.751061,-0.0141611,-2.38996,2.53677,1.28074,-4.9,4.1,0,12549,49.579,25.141,12464.7
4431865721,0.634768,2.223,98.0489,0.26972,0.314889,0.911267,-4.25965,-0.779566,-0.0196058,-2.33838,2.29621,1.42442,-4.9,4.1,0,12549,49.579,25.141,12464.7
4431966070,0.634768,2.223,98.064,0.262429,0.315642,0.909261,-4.61766,-0.811158,-0.0167034,-2.32554,2.2396,1.08479,-4.9,4.1,0,12549,49.579,25.141,12464.7
4432066424,0.634768,2.223,98.073,0.242214,0.297251,0.902506,-4.97606,-0.852319,-0.0242059,-2.31935,2.14888,1.18915,-4.9,4.1,0,12549,49.579,25.141,12464.7
4432166777,0.634768,2.223,98.0798,0.211682,0.270371,0.895037,-5.29737,-0.894309,-0.0264019,-2.06002,1.93892,1.05176,-4.9,4.1,0,12549,49.579,25.141,12464.7
4432267141,0.634768,2.223,98.0808,0.178279,0.241906,0.888758,-5.57247,-0.930164,-0.0138018,-1.82015,1.65671,0.639431,-4.9,4.1,0,12549,49.579,25.141,12464.7
4432367487,0.634768,2.223,98.0894,0.147603,0.215545,0.884135,-5.79756,-0.967364,-0.0195896,-1.54442,1.2845,0.482345,-4.9,4.1,0,12549,49.557,26.683,13223.3
4432467843,0.634768,2.223,98.0923,0.123831,0.194016,0.880043,-5.96496,-1.00842,-0.0248128,-1.21768,0.90906,0.329793,-4.9,4.1,0,12549,49.557,26.683,13223.3
4432568150,0.634767,2.223,98.0966,0.104377,0.172692,0.876876,-6.09848,-1.05313,-0.0384378,-1.07666,0.6939,0.0515046,-4.9,4.1,0,12549,49.557,26.683,13223.3
4432668514,0.634767,2.223,98.0949,0.0885806,0.152416,0.874352,-6.19979,-1.08775,-0.0430707,-0.728065,0.517319,0.271605,4.7,4.2,0,12549,49.557,26.683,13223.3
4432768885,0.634767,2.223,98.0976,0.0783986,0.124583,0.872643,-6.26328,-1.1251,-0.0388785,-0.540376,0.289991,0.173313,4.7,4.2,0,12549,49.557,26.683,13223.3
4432869313,0.634767,2.223,98.0982,0.0531585,-0.0913096,0.867815,-6.32694,-1.157,0.00893735,-0.3491,0.259496,0.576231,4.7,4.2,0,12549,49.557,26.683,13223.3
4432969698,0.634767,2.223,98.1018,0.0312297,-0.283066,0.864331,-6.1473,-0.971234,0.0516815,2.8894,-0.0753429,0.136897,4.7,4.2,0,12549,49.557,26.683,13223.3
4433070056,0.634767,2.223,98.0979,0.023216,-0.393334,0.860598,-5.79314,-0.627418,-0.0446249,4.1299,-0.289386,1.52361,4.7,4.2,0,12549,49.557,26.683,13223.3
4433170448,0.634767,2.223,98.0826,0.0154873,-0.45261,0.857445,-5.42102,-0.251557,-0.0515561,4.70364,-0.248494,2.40567,4.7,4.2,0,12549,49.557,26.683,13223.3
4433270789,0.634767,2.223,98.0456,0.00798884,-0.476728,0.855244,-5.01609,0.151149,-0.0863298,5.07156,-0.296654,2.51859,4.7,4.2,0,12549,49.557,26.683,13223.3
4433371861,0.634767,2.223,97.9987,-0.000112817,-0.48526,0.853673,-4.59266,0.570892,-0.101401,5.16178,-0.28468,2.85973,4.7,4.2,0,12549,49.478,27.265,13490.2
4433473200,0.634767,2.223,97.9657,-0.00740828,-0.479146,0.852736,-4.14871,1.0074,-0.108123,5.28297,-0.267531,2.99681,4.7,4.2,0,12549,49.478,27.265,13490.2
4433573597,0.634767,2.223,97.9266,-0.0140888,-0.468151,0.850957,-3.70436,1.40696,-0.124821,4.891,-0.513047,3.13468,4.7,4.2,0,12549,49.478,27.265,13490.2
4433673996,0.634767,2.223,97.9029,-0.00927016,-0.455745,0.849115,-3.25391,1.79768,-0.107333,4.90604,-0.619206,2.78776,4.7,4.2,0,12549,49.478,27.265,13490.2
4433774389,0.634767,2.223,97.8915,0.00372259,-0.439752,0.848494,-2.8299,2.17899,-0.09332,4.69244,-0.529658,2.61672,4.7,4.2,0,12549,49.478,27.265,13490.2
4433874742,0.634767,2.223,97.8815,0.0223068,-0.425137,0.847326,-2.43,2.56377,-0.0674303,4.55426,-0.34985,2.58091,4.7,4.2,0,12549,49.478,27.265,13490.2
4433975089,0.634766,2.223,97.8803,0.0484192,-0.410422,0.844829,-2.07292,2.94346,-0.0489807,4.40058,-0.150745,2.01995,4.7,4.2,0,12549,49.478,27.265,13490.2
4434075434,0.634766,2.223,97.8967,0.0720093,-0.394719,0.842646,-1.75879,3.31301,-0.0227134,4.11602,0.0866811,1.78876,4.7,4.2,0,12549,49.478,27.265,13490.2
4434175756,0.634766,2.223,97.9196,0.0947799,-0.379673,0.840477,-1.47471,3.6746,-0.0145291,3.94576,0.195592,1.59725,4.7,4.2,0,12549,49.478,27.265,13490.2
4434276079,0.634766,2.223,97.944,0.116696,-0.368839,0.839654,-1.25588,4.01955,0.000170089,3.68213,0.543918,1.23081,4.7,4.2,0,12549,49.478,27.265,13490.2
4434376403,0.634766,2.223,97.9667,0.134432,-0.355991,0.840269,-1.05289,4.37522,-0.0015283,3.57333,0.71888,1.28352,4.7,4.2,0,12549,49.478,27.265,13490.2
4434476764,0.634766,2.223,97.9867,0.141449,-0.324346,0.84325,-0.879072,4.72827,0.000669573,3.40818,0.925205,1.23384,4.7,4.2,0,12549,49.457,28.301,13996.8
4434577113,0.634766,2.223,98.0139,0.134091,-0.276448,0.849346,-0.751281,5.02958,0.0114611,2.863,0.893231,0.672609,4.7,4.2,0,12549,49.457,28.301,13996.8
4434677510,0.634766,2.223,98.0295,0.122673,-0.232312,0.853847,-0.651339,5.2727,0.0118291,2.29684,0.726507,0.527574,2.93767,-4.93787,0,12549,49.457,28.301,13996.8
4434777862,0.634766,2.223,98.0478,0.0903754,-0.165957,0.858961,-0.578667,5.49425,0.0147909,2.08046,0.738004,0.845347,2.80582,-5.15747,0,12549,49.457,28.301,13996.8
4434878222,0.634766,2.223,98.0733,-0.0749511,0.0465108,0.864862,-0.517023,5.62577,0.108591,0.968332,0.0423906,0.489263,2.66901,-5.39247,0,12549,49.457,28.301,13996.8
4434978584,0.634766,2.223,98.0979,-0.225444,0.222126,0.840016,-0.494897,5.40664,0.0944096,-1.7343,-1.97039,-0.420193,2.59396,-5.34569,0,12549,49.457,28.301,13996.8
4435078945,0.634766,2.223,98.1081,-0.297758,0.308958,0.816505,-0.472963,5.00937,0.0202688,-2.77749,-2.79387,1.27506,2.54183,-5.30852,0,12549,49.457,28.301,13996.8
4435179336,0.634766,2.223,98.1165,-0.334036,0.348146,0.803009,-0.474725,4.5194,-0.0191966,-3.41695,-3.06963,1.61711,2.46294,-5.34194,0,12549,49.457,28.301,13996.8
4435279683,0.634766,2.223,98.1085,-0.360352,0.366628,0.793804,-0.467943,3.99072,-0.0850167,-3.59244,-3.4049,1.89822,2.43752,-5.38617,0,12549,49.457,28.301,13996.8
4435380072,0.634766,2.223,98.0867,-0.374374,0.374327,0.787841,-0.449115,3.42337,-0.133436,-3.49465,-3.4549,2.61873,2.39686,-5.45291,0,12549,49.457,28.301,13996.8
4435480340,0.634766,2.223,98.0617,-0.376904,0.370332,0.787713,-0.442313,2.81853,-0.158706,-3.72296,-3.56811,2.79135,2.38158,-5.53416,0,12505,49.572,24.228,12010.3
4435580596,0.634766,2.223,98.0364,-0.349486,0.332207,0.80086,-0.421452,2.2107,-0.155319,-3.41999,-3.44453,3.14359,2.31143,-5.70757,0,12505,49.572,24.228,12010.3
4435680868,0.634766,2.223,98.0186,-0.305098,0.276839,0.819359,-0.378562,1.6657,-0.118773,-2.95963,-3.27716,2.50528,2.26293,-5.88014,0,12505,49.572,24.228,12010.3
4435781183,0.634766,2.223,98.0009,-0.259116,0.206959,0.835986,-0.327555,1.21922,-0.0927205,-2.3699,-2.87455,1.72381,2.2089,-6.0469,0,12505,49.572,24.228,12010.3
4435881548,0.634766,2.223,97.9927,-0.279619,0.0715167,0.847048,-0.251357,0.869151,-0.0309782,-1.31101,-2.47142,1.51931,2.22766,-6.18427,0,12505,49.572,24.228,12010.3
4435981899,0.634766,2.223,97.9843,-0.326263,-0.0240231,0.864287,-0.0344586,0.625522,-0.0166399,-0.0196058,-3.01547,0.798441,2.14861,-6.237,0,12505,49.572,24.228,12010.3
4436082245,0.634766,2.223,97.9619,-0.360217,-0.0780551,0.87949,0.265298,0.422318,-0.0492249,0.700799,-3.21433,1.36533,2.08895,-6.22817,0,12505,49.572,24.228,12010.3
4436182601,0.634766,2.223,97.9334,-0.378226,-0.104244,0.889013,0.632786,0.230555,-0.0508561,1.09613,-3.52002,1.64007,2.04347,-6.20842,0,12505,49.572,24.228,12010.3
4436282954,0.634766,2.223,97.9144,-0.380565,-0.115987,0.894463,1.02878,0.0551362,-0.0500903,1.36459,-3.67138,1.6282,2.02216,-6.1623,0,12505,49.572,24.228,12010.3
4436383319,0.634766,2.223,97.8978,-0.377117,-0.119345,0.896488,1.42353,-0.10548,-0.0341164,1.32877,-3.48621,1.86081,2.00822,-6.10834,0,12505,49.572,24.228,12010.3
4436483664,0.634766,2.223,97.879,-0.370382,-0.117743,0.896553,1.81279,-0.255156,-0.0231578,1.27764,-3.35884,1.83032,1.9863,-6.03561,0,12505,49.474,27.893,13799.8
4436584054,0.634766,2.223,97.8572,-0.364732,-0.113555,0.895379,2.18281,-0.394419,-0.0121711,1.2104,-3.20118,1.66836,1.97025,-5.96016,0,12505,49.474,27.893,13799.8
4436684448,0.634766,2.223,97.8524,-0.360084,-0.106547,0.893361,2.55069,-0.525307,-0.00267321,1.19908,-3.19427,1.61266,1.93022,-5.86345,0,12505,49.474,27.893,13799.8
4436784797,0.634767,2.223,97.8521,-0.357272,-0.0982622,0.891193,2.90199,-0.646671,-0.00228158,1.14904,-3.09657,1.45141,1.89526,-5.76066,0,12505,49.474,27.893,13799.8
4436885170,0.634767,2.223,97.8507,-0.357419,-0.085244,0.887141,3.25111,-0.771568,0.0186343,1.03898,-3.07652,1.57774,1.84339,-5.6404,0,12505,49.474,27.893,13799.8
4436985505,0.634767,2.223,97.8525,-0.359134,-0.0736267,0.884376,3.57487,-0.905884,0.0325955,0.907651,-3.06353,1.25725,1.79415,-5.51393,0,12505,49.474,27.893,13799.8
4437085861,0.634767,2.223,97.8607,-0.358363,-0.053306,0.879428,3.88362,-1.03317,0.0257235,0.771291,-2.99173,0.960672,1.73535,-5.37837,0,12505,49.474,27.893,13799.8
4437186219,0.634767,2.223,97.8702,-0.346118,-0.0276759,0.873051,4.16792,-1.17976,0.0208681,0.473832,-2.83877,1.3083,1.69286,-5.22968,0,12505,49.474,27.893,13799.8
4437286564,0.634767,2.223,97.8844,-0.296796,0.00243772,0.866548,4.41095,-1.3365,0.0368952,0.172604,-2.45846,1.31054,1.62829,-5.06167,0,12505,49.474,27.893,13799.8
4437386868,0.634767,2.223,97.9038,-0.240855,0.0261634,0.862492,4.5802,-1.46925,0.0621425,-0.12557,-1.91201,0.748606,1.56888,-4.90004,0,12505,49.474,27.893,13799.8
4437487215,0.634767,2.223,97.9181,-0.179503,0.046909,0.860334,4.6837,-1.57071,0.0762425,-0.356178,-1.3097,0.253064,1.48274,-4.72034,0,12505,49.534,27.483,13613.4
4437587587,0.634767,2.223,97.9333,-0.12704,0.0600919,0.86014,4.72489,-1.65157,0.0665824,-0.536785,-0.808495,-0.0494478,1.40624,-4.55443,0,12505,49.534,27.483,13613.4
4437687985,0.634767,2.223,97.9509,-0.0841315,0.0688286,0.859779,4.72262,-1.70228,0.0708062,-0.576002,-0.317581,-0.185664,1.3269,-4.3879,0,12505,49.534,27.483,13613.4
4437788405,0.634767,2.223,97.9746,-0.0494837,0.0738709,0.860707,4.6939,-1.73793,0.0483866,-0.595163,-0.0418707,-0.252978,1.24576,-4.21029,0,12505,49.534,27.483,13613.4
4437888726,0.634767,2.223,97.9951,-0.0204928,0.077312,0.861839,4.63136,-1.75198,0.0394519,-0.661518,0.346911,-0.394978,1.17815,-4.06326,0,12505,49.534,27.483,13613.4
4437989118,0.634767,2.223,98.0066,0.00136468,0.0804376,0.861994,4.53604,-1.75278,0.0260803,-0.747619,0.658529,-0.241059,1.11114,-3.89289,0,12505,49.534,27.483,13613.4
4438089491,0.634767,2.223,98.0178,0.0187853,0.0845526,0.863161,4.43195,-1.73978,0.0147553,-0.68729,0.820774,-0.172772,1.05627,-3.75753,0,12505,49.534,27.483,13613.4
4438189798,0.634768,2.223,98.0274,0.0360554,0.0859735,0.863734,4.30452,-1.72846,0.00253693,-0.826818,0.963276,-0.204069,1.00086,-3.60759,0,12505,49.534,27.483,13613.4
4438290203,0.634768,2.223,98.0357,0.0445137,0.0844384,0.864033,4.14065,-1.68908,-0.00800984,-0.673055,1.09845,-0.039177,0.958977,-3.47938,0,12505,49.534,27.483,13613.4
4438390599,0.634768,2.223,98.0464,0.0482561,0.0794632,0.864503,3.99826,-1.65615,-0.0242419,-0.673871,1.177,-0.0938118,0.912211,-3.338,0,12505,49.534,27.483,13613.4
4438490923,0.634768,2.223,98.0516,0.0496354,0.0755407,0.864302,3.85679,-1.61116,-0.0274113,-0.57189,1.16627,0.0416428,0.883084,-3.23075,0,12505,49.278,30.61,15084
4438591301,0.634768,2.223,98.0538,0.0490317,0.0711316,0.86493,3.71305,-1.56827,-0.0337203,-0.631898,1.19517,-0.06981,0.843489,-3.10321,0,12505,49.278,30.61,15084
4438691672,0.634768,2.223,98.0532,0.0457496,0.0677508,0.865155,3.58027,-1.53001,-0.0449955,-0.546611,1.093,0.110893,0.818075,-3.00567,0,12505,49.278,30.61,15084
4438792069,0.634768,2.223,98.0534,0.0420841,0.0636936,0.86601,3.45724,-1.49595,-0.0461113,-0.494775,0.974814,0.140525,0.785156,-2.89462,0,12505,49.278,30.61,15084
4438892452,0.634768,2.223,98.0494,0.0399142,0.0607633,0.866624,3.33901,-1.46407,-0.0495615,-0.417632,0.957647,0.082192,0.759195,-2.79479,0,12505,49.278,30.61,15084
4438992810,0.634768,2.223,98.043,0.038548,0.0587919,0.866984,3.22906,-1.42459,-0.0525061,-0.344069,0.940688,0.303818,0.73061,-2.6881,0,12505,49.278,30.61,15084
4439093166,0.634768,2.223,98.0364,0.0364705,0.0567249,0.867554,3.12157,-1.39305,-0.0478352,-0.388111,0.896768,0.0741404,0.707546,-2.59247,0,12505,49.278,30.61,15084
4439193486,0.634768,2.223,98.0266,0.037156,0.0546633,0.867409,3.0215,-1.36548,-0.0490662,-0.372569,0.848331,0.0577477,0.682889,-2.48793,0,12505,49.278,30.61,15084
4439293750,0.634768,2.223,98.0199,0.0370756,0.0500221,0.867415,2.91901,-1.33585,-0.0454144,-0.293956,0.8823,0.359299,0.66434,-2.39878,0,12505,49.278,30.61,15084
4439394063,0.634768,2.223,98.0162,0.0397266,0.0461024,0.867342,2.82461,-1.29459,-0.031934,-0.287202,0.910576,0.12928,0.641817,-2.29809,0,12505,49.278,30.61,15084
4439494380,0.634768,2.223,98.0169,0.0377386,0.042196,0.86663,2.73156,-1.25072,-0.0441822,-0.210284,0.945824,-0.127966,0.624756,-2.21054,0,12505,49.278,30.61,15084
4439594735,0.634768,2.223,98.0181,0.0353854,0.0400695,0.865948,2.64265,-1.209,-0.0383886,-0.220708,0.887775,0.208146,0.604118,-2.11436,0,12505,49.248,30.61,15074.8
4439695116,0.634768,2.223,98.0195,0.0339406,0.0408619,0.865554,2.55918,-1.17463,-0.0328048,-0.207595,0.79027,0.181766,0.586248,-2.02636,0,12505,49.248,30.61,15074.8
4439795484,0.634768,2.223,98.0252,0.0344238,0.0434662,0.865662,2.47387,-1.14584,-0.0260089,-0.288326,0.849444,0.0614205,0.565729,-1.9369,0,12505,49.248,30.61,15074.8
4439895847,0.634768,2.223,98.0221,0.0347861,0.0433773,0.865937,2.38809,-1.11683,-0.0334898,-0.26867,0.763764,-0.00217829,0.545534,-1.84931,0,12505,49.248,30.61,15074.8
4439996205,0.634768,2.223,98.006,0.038585,0.0416194,0.86626,2.29613,-1.09053,-0.0296267,-0.285947,0.893725,0.160171,0.525898,-1.76566,0,12505,49.248,30.61,15074.8
4440096464,0.634768,2.223,98.0097,0.0399752,0.0413011,0.866706,2.21,-1.05038,-0.0323364,-0.181832,0.894918,-0.0612939,0.506954,-1.67837,0,12505,49.248,30.61,15074.8
4440196833,0.634768,2.223,98.012,0.0434448,0.0412513,0.867334,2.12996,-1.0134,-0.0320205,-0.174024,0.828642,0.173986,0.489877,-1.60368,0,12505,49.248,30.61,15074.8
4440297192,0.634768,2.223,98.0093,0.0453938,0.0398162,0.867878,2.03731,-0.969991,-0.0334214,-0.186928,0.986137,0.0866913,0.474035,-1.52532,0,12505,49.248,30.61,15074.8
4440397543,0.634768,2.223,98.0099,0.0467513,0.0399056,0.868133,1.95542,-0.922405,-0.0293606,-0.126996,0.959014,0.0879508,0.458037,-1.44813,0,12505,49.248,30.61,15074.8
4440497907,0.634768,2.223,98.0095,0.04466,0.0395623,0.868211,1.87012,-0.895521,-0.0327431,-0.282183,0.883623,-0.00103877,0.444895,-1.3794,0,12505,49.248,30.61,15074.8
4440598276,0.634768,2.223,98.0218,0.0452295,0.0380212,0.868392,1.78851,-0.862442,-0.0279671,-0.253325,0.876772,-0.133996,0.430529,-1.30854,0,12505,49.474,26.278,13000.8
4440698686,0.634769,2.223,98.0274,0.0466375,0.0354999,0.868,1.70952,-0.825955,-0.0278532,-0.170552,0.8429,-0.0723471,0.420336,-1.24494,0,12505,49.474,26.278,13000.8
4440799063,0.634769,2.223,98.0376,0.0460292,0.0345434,0.86818,1.63387,-0.788085,-0.0268327,-0.135027,0.879595,-0.120398,0.408057,-1.17974,0,12505,49.474,26.278,13000.8
4440899410,0.634769,2.223,98.0482,0.0446491,0.0343608,0.868081,1.56763,-0.741552,-0.0316179,1.02946e-05,0.821865,0.0716317,0.400004,-1.121,0,12505,49.474,26.278,13000.8
4440999707,0.634769,2.223,98.0559,0.0426318,0.0355256,0.868032,1.50448,-0.705788,-0.0359519,-0.0422197,0.761783,-0.0249648,0.390274,-1.06373,0,12505,49.474,26.278,13000.8
4441100087,0.634769,2.223,98.0556,0.0403993,0.0352618,0.868091,1.44344,-0.666233,-0.0446864,-0.0346485,0.735715,-0.144003,0.381656,-1.00829,0,12505,49.474,26.278,13000.8
4441200446,0.634769,2.223,98.0516,0.036979,0.0335457,0.867776,1.38705,-0.635128,-0.0518572,-0.0576609,0.617624,-0.116344,0.372437,-0.956711,0,12505,49.474,26.278,13000.8
4441300757,0.634769,2.223,98.0523,0.0361512,0.0312687,0.86779,1.33168,-0.600181,-0.0574136,-0.0212201,0.647889,0.0253247,0.363781,-0.905616,0,12505,49.474,26.278,13000.8
4441401139,0.634769,2.223,98.0549,0.0355111,0.0318974,0.867845,1.27872,-0.567983,-0.0510167,-0.0557013,0.634358,-0.0087948,0.354383,-0.857943,0,12505,49.474,26.278,13000.8
4441501427,0.634769,2.223,98.0506,0.0359046,0.0326453,0.867888,1.21938,-0.535591,-0.0509252,-0.0590496,0.6533,0.0741265,0.344458,-0.809048,0,12505,49.474,26.278,13000.8
4441601767,0.634769,2.223,98.0454,0.0350107,0.0328589,0.86812,1.16823,-0.497842,-0.0450491,-0.00727941,0.643111,-0.21647,0.334695,-0.766175,0,12505,49.499,24.666,12209.4
4441702146,0.634769,2.223,98.0439,0.035645,0.0343183,0.868252,1.1189,-0.469468,-0.0544683,-0.0290543,0.604251,0.0879083,0.326248,-0.726982,0,12505,49.499,24.666,12209.4
4441802512,0.634769,2.223,98.0362,0.0352248,0.0360542,0.868406,1.05162,-0.442408,-0.0566075,-0.125576,0.713235,0.0744645,0.317497,-0.689997,0,12505,49.499,24.666,12209.4
4441902880,0.634769,2.223,98.0273,0.0331704,0.0377543,0.868506,0.99962,-0.419207,-0.0540229,-0.0844777,0.575436,0.244656,0.31095,-0.655188,0,12505,49.499,24.666,12209.4
4442003242,0.634769,2.223,98.0158,0.0297724,0.0396187,0.86875,0.947957,-0.402227,-0.0529119,-0.177859,0.498798,0.175991,0.303471,-0.621106,0,12505,49.499,24.666,12209.4
4442103612,0.634769,2.223,98.0051,0.0277341,0.0404045,0.868872,0.89738,-0.3874,-0.0443349,-0.160614,0.535723,0.26024,0.297871,-0.588863,0,12505,49.499,24.666,12209.4
4442204034,0.634769,2.223,97.9906,0.0281094,0.0393129,0.868733,0.849948,-0.369182,-0.0423587,-0.104099,0.485766,0.141704,0.292178,-0.558805,0,12505,49.499,24.666,12209.4
4442304368,0.634769,2.223,97.9839,0.0279281,0.0378731,0.868452,0.800188,-0.351789,-0.0354808,-0.140676,0.524965,0.141225,0.289383,-0.527972,0,12505,49.499,24.666,12209.4
4442404716,0.634769,2.223,97.9703,0.0265933,0.0347635,0.867935,0.747008,-0.336703,-0.0361502,-0.147326,0.53536,0.132625,0.285696,-0.498479,0,12505,49.499,24.666,12209.4
4442505071,0.634769,2.223,97.9621,0.024539,0.0310995,0.867405,0.703395,-0.320335,-0.0325637,-0.0423589,0.46676,0.376029,0.284669,-0.473301,0,12505,49.499,24.666,12209.4
4442605404,0.634769,2.223,97.9602,0.0228943,0.0300017,0.867245,0.666603,-0.298596,-0.0191355,-0.0113983,0.492824,0.00793387,0.282227,-0.44813,0,12505,49.499,24.666,12209.4
4442705819,0.634769,2.223,97.9636,0.0205685,0.0290334,0.86728,0.633139,-0.276543,-0.0155162,-0.0102131,0.389208,-0.0947899,0.280526,-0.424729,0,12505,49.499,24.666,12209.4
4442806180,0.634769,2.223,97.969,0.0199322,0.0286512,0.867218,0.600507,-0.257146,-0.0116516,-0.0345498,0.414346,0.0801419,0.277559,-0.401624,0,12505,49.499,24.666,12209.4
4442906583,0.634769,2.223,97.9789,0.0194998,0.028998,0.866938,0.572455,-0.231702,-0.00152362,0.0371629,0.413035,-0.186842,0.276557,-0.38207,0,12505,49.499,24.666,12209.4
4443006877,0.634769,2.223,97.9894,0.0208461,0.0298026,0.866793,0.538897,-0.210397,0.00015883,-0.0457978,0.369735,-0.186927,0.274243,-0.362732,0,12505,49.499,24.666,12209.4
4443107281,0.634769,2.223,97.9945,0.0185259,0.0282485,0.866773,0.507616,-0.189056,-0.000592696,-0.0118569,0.397584,-0.0156461,0.272863,-0.345685,0,12461,49.537,24.455,12114.3
4443207698,0.634769,2.223,98.0006,0.0166309,0.0270421,0.866741,0.483201,-0.172811,-0.00187645,-0.0134213,0.307102,-0.19339,0.270804,-0.330978,0,12461,49.537,24.455,12114.3
4443308093,0.634769,2.223,97.995,0.0175463,0.0261427,0.866789,0.454276,-0.150189,-0.0165542,0.0355726,0.398673,-0.108316,0.270032,-0.315277,0,12461,49.537,24.455,12114.3
4443408447,0.634769,2.223,97.9892,0.0147433,0.0261817,0.866851,0.42761,-0.119524,-0.0179605,0.0938752,0.440825,0.0270996,0.268312,-0.301307,0,12461,49.537,24.455,12114.3
4443508809,0.634769,2.223,97.9775,0.011438,0.0266547,0.866622,0.408483,-0.0996178,-0.0192962,0.0663402,0.250227,0.0360825,0.26767,-0.286992,0,12461,49.537,24.455,12114.3
4443609125,0.634769,2.223,97.9667,0.0107114,0.0259644,0.866542,0.392733,-0.0916726,-0.0129086,-0.0215922,0.214125,-0.0505698,0.265737,-0.273998,0,12461,49.537,24.455,12114.3
4443709538,0.634769,2.223,97.9735,0.0103398,0.02444,0.866624,0.379843,-0.0799699,-0.0137791,0.0855972,0.183806,-0.0260694,0.264983,-0.263546,0,12461,49.537,24.455,12114.3
4443809896,0.634769,2.223,97.9735,0.0101793,0.0247542,0.866662,0.366092,-0.060131,-0.00967247,0.0463482,0.240057,0.0627157,0.263068,-0.253529,0,12461,49.537,24.455,12114.3
4443910241,0.634769,2.223,97.9756,0.00824123,0.0242363,0.866703,0.338803,-0.0395315,-0.0133389,0.0807508,0.287122,0.0315952,0.261856,-0.243295,0,12461,49.537,24.455,12114.3
4444010645,0.634769,2.223,97.9709,0.0063214,0.0251605,0.866815,0.328934,-0.0228647,-0.0142493,0.114843,0.210187,0.0573781,0.259572,-0.233914,0,12461,49.537,24.455,12114.3
4444111017,0.634769,2.223,97.9676,0.00488243,0.0268093,0.866945,0.313077,-0.0186166,-0.0178048,-0.0468816,0.108831,0.0186303,2.1,-0.5,0,12461,49.545,24.646,12210.9
4444211397,0.634769,2.223,97.9637,0.0041742,0.0302888,0.867194,0.300225,-0.0149335,-0.016736,0.0554238,0.126703,-0.0218846,2.1,-0.5,0,12461,49.545,24.646,12210.9
4444311789,0.634769,2.223,97.9602,0.0116575,0.047871,0.867658,0.280581,-0.0123238,-0.0105777,-0.0691496,0.164922,0.110052,2.1,-0.5,0,12461,49.545,24.646,12210.9
4444412186,0.634769,2.223,97.9643,0.0197164,0.0540879,0.868079,0.241561,-0.0250658,-0.00654999,-0.259596,0.266152,0.0171795,2.1,-0.5,0,12461,49.545,24.646,12210.9
4444512533,0.634769,2.223,97.9685,0.0243764,0.0557612,0.868457,0.198696,-0.0328312,-0.00898403,-0.309215,0.314523,-0.175643,2.1,-0.5,0,12461,49.545,24.646,12210.9
4444612828,0.634769,2.223,97.9683,0.0258961,0.0549263,0.868556,0.153814,-0.0364885,-0.0128652,-0.254141,0.328344,0.0470557,2.1,-0.5,0,12461,49.545,24.646,12210.9
4444713117,0.634769,2.223,97.9629,0.0265048,0.0515214,0.86832,0.105655,-0.0435856,-0.0117132,-0.3221,0.29424,0.177337,2.1,-0.5,0,12461,49.545,24.646,12210.9
4444813465,0.634769,2.223,97.9612,0.0255081,0.0455397,0.868557,0.0708006,-0.0434965,-0.00938332,-0.13071,0.223124,0.202467,2.1,-0.5,0,12461,49.545,24.646,12210.9
4444913781,0.634769,2.223,97.9542,0.0252249,0.0426473,0.868769,0.0366953,-0.0431198,-0.0156098,-0.159322,0.240081,0.069416,2.1,-0.5,0,12461,49.545,24.646,12210.9
4445014060,0.634769,2.223,97.9473,0.0234002,0.0367747,0.868897,0.00681518,-0.0356228,-0.011931,-0.0596262,0.288343,-0.0755428,2.1,-0.5,0,12461,49.545,24.646,12210.9
4445114380,0.634769,2.223,97.9456,0.0196354,0.0349077,0.86879,-0.0220326,-0.0260868,-0.00822354,-0.0756176,0.251563,0.00776638,2.1,-0.5,0,12461,49.504,24.747,12250.8
4445214757,0.634769,2.223,97.9495,0.0127905,0.0273119,0.867383,-0.0413587,-0.0213602,-0.00376971,-0.0108089,0.169946,0.0324912,2.1,-0.5,0,12461,49.504,24.747,12250.8
4445315105,0.634769,2.223,97.9504,-0.0246711,-0.115437,0.867551,-0.0580721,-0.0237254,0.0289614,0.116763,0.0473503,0.38078,2.1,-0.5,0,12461,49.504,24.747,12250.8
4445415458,0.634769,2.223,97.9575,-0.0619293,-0.257495,0.875477,0.121184,0.122291,0.010708,2.49053,-0.453815,-0.0651428,2.1,-0.5,0,12461,49.504,24.747,12250.8
4445515782,0.634769,2.223,97.964,-0.0779563,-0.309854,0.879155,0.365675,0.324849,-0.0293374,3.09828,-0.537591,0.900236,2.1,-0.5,0,12461,49.504,24.747,12250.8
4445616173,0.634769,2.223,97.9673,-0.0792819,-0.301538,0.87817,0.655856,0.545307,-0.0241145,3.41201,-0.735603,0.990774,2.1,-0.5,0,12461,49.504,24.747,12250.8
4445716557,0.634769,2.223,97.952,-0.0688327,-0.258241,0.874609,0.909794,0.739525,-0.0175044,2.88604,-0.611062,1.18314,2.1,-0.5,0,12461,49.504,24.747,12250.8
4445816917,0.634769,2.223,97.9328,-0.0551248,-0.205987,0.871224,1.12649,0.899032,-0.0053536,2.49074,-0.605753,0.478012,2.1,-0.5,0,12461,49.504,24.747,12250.8
4445917265,0.634769,2.223,97.9217,-0.0423814,-0.157243,0.868922,1.28663,1.01994,-0.0120549,1.84336,-0.405858,0.447285,2.1,-0.5,0,12461,49.504,24.747,12250.8
4446017628,0.634769,2.223,97.9131,-0.0310739,-0.116924,0.867795,1.40638,1.11512,0.00353205,1.3572,-0.299763,0.435919,2.1,-0.5,0,12461,49.504,24.747,12250.8
4446118013,0.634769,2.223,97.9193,-0.0247996,-0.0868792,0.867403,1.49192,1.19362,0.00796109,1.05374,-0.138097,0.036358,1.5,2,0,12461,49.504,24.747,12250.8
4446218317,0.634769,2.223,97.92,0.00477864,-0.0587223,0.864194,1.557,1.24549,-0.000442704,0.73641,-0.197501,0.0330083,1.5,2,0,12461,49.515,24.346,12054.9
4446318705,0.634769,2.223,97.9267,0.177942,0.00377429,0.865034,1.57081,1.32213,0.0445115,0.492788,0.676547,0.413602,1.5,2,0,12461,49.515,24.346,12054.9
4446419027,0.634769,2.223,97.9403,0.317973,0.0534701,0.875886,1.38156,1.46274,0.00363835,-0.251742,2.4925,0.130467,1.5,2,0,12461,49.515,24.346,12054.9
4446519468,0.634769,2.223,97.9507,0.386142,0.0761019,0.883583,1.06196,1.6543,-0.031754,-0.662357,3.54759,1.23594,1.5,2,0,12461,49.515,24.346,12054.9
4446619825,0.634769,2.223,97.9582,0.373344,0.0760001,0.883585,0.679477,1.8704,-0.0169315,-0.773172,3.87044,1.77533,1.5,2,0,12461,49.515,24.346,12054.9
4446720190,0.634769,2.223,97.9678,0.319869,0.0651679,0.879755,0.335084,2.0621,0.00301937,-0.702242,3.50105,1.21814,1.5,2,0,12461,49.515,24.346,12054.9
4446820475,0.634769,2.223,97.9802,0.257609,0.0513653,0.875655,0.058901,2.21542,0.0105316,-0.547289,2.81038,0.838672,1.5,2,0,12461,49.515,24.346,12054.9
4446920839,0.634769,2.223,97.984,0.198937,0.0378768,0.872536,-0.151358,2.33534,0.0179997,-0.400077,2.14402,0.489913,1.5,2,0,12461,49.515,24.346,12054.9
4447021151,0.634769,2.223,97.9893,0.150535,0.027231,0.870565,-0.308394,2.42065,0.0153191,-0.248199,1.56572,0.104785,1.5,2,0,12461,49.515,24.346,12054.9
4447121526,0.634769,2.223,98.0126,0.115251,0.0182028,0.869612,-0.434892,2.48358,0.0094745,-0.223258,1.24044,0.0163543,1.5,2,0,12461,49.515,24.346,12054.9
4447221842,0.634769,2.223,98.0319,0.088944,0.0124423,0.868812,-0.523781,2.53497,0.00684508,-0.0164665,0.853672,-0.000925817,1.5,2,0,12461,49.481,25.293,12515.2
4447322211,0.634769,2.223,98.0399,0.0688993,0.0102759,0.868364,-0.59899,2.57428,0.00345331,-0.0852993,0.722171,-0.0671286,1.5,2,0,12461,49.481,25.293,12515.2
4447422559,0.634769,2.223,98.0445,0.0555191,0.00707157,0.86793,-0.650148,2.60175,-0.00384822,0.0232287,0.464665,-0.205332,1.5,2,0,12461,49.481,25.293,12515.2
4447522917,0.634769,2.223,98.0532,0.0470058,0.00367182,0.867237,-0.694551,2.62049,-0.0194905,-0.0128975,0.362479,-0.254847,1.5,2,0,12461,49.481,25.293,12515.2
4447623217,0.634769,2.223,98.0624,0.0407025,0.000664932,0.866508,-0.728956,2.64096,-0.0279258,0.0554441,0.333116,0.00110301,1.5,2,0,12461,49.481,25.293,12515.2
4447723566,0.634769,2.223,98.0652,0.0336244,-0.000909463,0.866293,-0.75617,2.6635,-0.0257775,0.0838315,0.313172,-0.0890913,1.5,2,0,12461,49.481,25.293,12515.2
4447823928,0.634769,2.223,98.0622,0.0283371,-0.000980845,0.865913,-0.777129,2.67299,-0.0402533,-0.00762456,0.187215,-0.164345,1.5,2,0,12461,49.481,25.293,12515.2
4447924320,0.634769,2.223,98.053,0.0238176,-0.00208943,0.865658,-0.790458,2.68269,-0.0592681,0.131602,0.157609,0.112313,1.5,2,0,12461,49.481,25.293,12515.2
4448024661,0.634769,2.223,98.0444,0.0178863,-0.00165398,0.865383,-0.795587,2.68351,-0.0569567,0.0862022,0.0530045,0.131511,1.5,2,0,12461,49.481,25.293,12515.2
4448125065,0.634769,2.223,98.03,0.0144539,-0.00144153,0.865692,-0.792656,2.68076,-0.0553109,0.0765283,-0.0129129,0.160566,-4,3.7,0,12461,49.481,25.293,12515.2
4448225466,0.634769,2.223,98.0249,0.0175834,0.00796856,0.866895,-0.79267,2.67458,-0.0495615,0.0349069,0.0156214,0.140063,-4,3.7,0,12461,49.332,27.213,13424.7
4448325889,0.634769,2.223,98.0218,0.05355,0.150326,0.870596,-0.803516,2.66474,-0.00426578,-0.394706,0.138221,0.254869,-4,3.7,0,12461,49.332,27.213,13424.7
4448426252,0.634769,2.223,98.0187,0.0867559,0.285224,0.879124,-0.968439,2.53652,-0.0507064,-2.18209,0.546519,-0.0222346,-4,3.7,0,12461,49.332,27.213,13424.7
4448526621,0.634769,2.223,98.0148,0.112604,0.367937,0.889231,-1.23973,2.33437,-0.0832558,-3.1842,0.79523,1.16968,-4,3.7,0,12461,49.332,27.213,13424.7
4448626937,0.634769,2.223,98.01,0.127553,0.405383,0.896574,-1.577,2.08136,-0.0678021,-3.5877,0.933643,2.01551,-4,3.7,0,12461,49.332,27.213,13424.7
4448727293,0.634769,2.223,98.0154,0.135338,0.415804,0.900066,-1.93272,1.81442,-0.0487807,-3.75854,0.946325,2.09699,-4,3.7,0,12461,49.332,27.213,13424.7
4448827654,0.634769,2.223,98.0254,0.140365,0.415026,0.900506,-2.29204,1.55452,-0.0512359,-3.77621,1.00639,1.93833,-4,3.7,0,12461,49.332,27.213,13424.7
4448928056,0.634769,2.223,98.0254,0.144924,0.408681,0.899645,-2.65281,1.29892,-0.0460369,-3.70703,1.05508,1.86355,-4,3.7,0,12461,49.332,27.213,13424.7
4449028406,0.634769,2.223,98.0218,0.146856,0.403249,0.898722,-3.0111,1.05414,-0.0427486,-3.63833,1.08953,1.77836,-4,3.7,0,12461,49.332,27.213,13424.7
4449128738,0.634769,2.223,98.0285,0.148527,0.398692,0.89822,-3.35553,0.818203,-0.0396278,-3.48302,1.08638,1.73983,-4,3.7,0,12461,49.332,27.213,13424.7
4449229110,0.634769,2.223,98.0383,0.151457,0.39359,0.898193,-3.69334,0.596987,-0.0396205,-3.43902,1.05168,1.50441,-4,3.7,0,12417,49.479,23.759,11755.7
4449329441,0.634769,2.223,98.0344,0.151681,0.384581,0.897536,-4.03096,0.370404,-0.0424197,-3.34175,1.0192,1.69704,-4,3.7,0,12417,49.479,23.759,11755.7
4449429797,0.634768,2.223,98.0315,0.140941,0.350521,0.893024,-4.3501,0.149979,-0.0258885,-3.23741,0.963518,1.40882,-4,3.7,0,12417,49.479,23.759,11755.7
4449530151,0.634768,2.223,98.0364,0.131552,0.302886,0.88673,-4.62583,-0.0296372,-0.0173104,-2.71792,0.909903,0.922348,-4,3.7,0,12417,49.479,23.759,11755.7
4449630458,0.634768,2.223,98.0471,0.120773,0.254913,0.881275,-4.85036,-0.162099,-0.0074677,-2.14751,0.84355,0.706301,-4,3.7,0,12417,49.479,23.759,11755.7
4449730767,0.634768,2.223,98.0513,0.113408,0.216977,0.877179,-5.05839,-0.280071,-0.00286595,-1.64037,0.713458,0.359282,-4,3.7,0,12417,49.479,23.759,11755.7
4449832219,0.634768,2.223,98.0657,0.107223,0.186746,0.875215,-5.19835,-0.352499,-0.00415874,-1.31217,0.651231,0.099363,-4,3.7,0,12417,49.479,23.759,11755.7
4449933635,0.634768,2.223,98.0719,0.0969172,0.161215,0.873428,-5.30373,-0.397768,-0.0208977,-0.945294,0.640015,0.117584,-4,3.7,0,12417,49.479,23.759,11755.7
4450034039,0.634768,2.223,98.0782,0.0869958,0.146366,0.873424,-5.39154,-0.441629,-0.015012,-0.82282,0.476264,0.0342208,-4,3.7,0,12417,49.479,23.759,11755.7
4450134491,0.634768,2.223,98.087,0.0765504,0.134531,0.872291,-5.45602,-0.48657,-0.019595,-0.755361,0.3174,-0.0836864,-1.9,4.7,0,12417,49.479,23.759,11755.7
4450234859,0.634768,2.223,98.088,0.0828551,0.0998787,0.874168,-5.5088,-0.537547,-0.0270579,-0.759002,0.167264,0.277529,-1.9,4.7,0,12417,49.468,25.853,12789
4450335219,0.634768,2.223,98.0885,0.159645,-0.0793763,0.867309,-5.53608,-0.514337,0.0311715,0.431359,0.583778,0.211081,-1.9,4.7,0,12417,49.468,25.853,12789
4450435565,0.634768,2.223,98.0959,0.211693,-0.189322,0.84967,-5.48913,-0.286673,-0.0496723,2.17215,1.34535,-0.606655,-1.9,4.7,0,12417,49.468,25.853,12789
4450535911,0.634768,2.223,98.0933,0.226662,-0.231026,0.838584,-5.41404,0.0477228,-0.0844223,2.76732,1.48128,1.4545,-1.9,4.7,0,12417,49.468,25.853,12789
4450636289,0.634767,2.223,98.0886,0.210795,-0.21357,0.838923,-5.33218,0.404457,-0.0714487,2.9022,1.61655,1.03957,-1.9,4.7,0,12417,49.468,25.853,12789
4450736636,0.634767,2.223,98.0752,0.188639,-0.171447,0.844745,-5.26794,0.711386,-0.0732604,2.45523,1.44588,0.848682,-1.9,4.7,0,12417,49.468,25.853,12789
4450836982,0.634767,2.223,98.0559,0.162429,-0.124571,0.851263,-5.20917,0.959843,-0.0841326,2.04049,1.17631,0.323514,-1.9,4.7,0,12417,49.468,25.853,12789
4450937354,0.634767,2.223,98.0399,0.138045,-0.0838603,0.85646,-5.17092,1.15653,-0.0827223,1.50814,0.92174,0.521141,-1.9,4.7,0,12417,49.468,25.853,12789
4451037736,0.634767,2.223,98.0308,0.119668,-0.0538212,0.859244,-5.14446,1.31091,-0.0531833,1.12879,0.781146,0.321112,-1.9,4.7,0,12417,49.468,25.853,12789
4451138083,0.634767,2.223,98.0234,0.10683,-0.0313538,0.86196,-5.13059,1.44264,-0.046092,0.870323,0.737176,0.36128,-1.9,4.7,0,12417,49.468,25.853,12789
4451238405,0.634767,2.223,98.0249,0.0922205,-0.0107755,0.863688,-5.12284,1.55516,-0.037214,0.666573,0.621505,-0.0582072,-1.9,4.7,0,12417,49.468,25.853,12789
4451338736,0.634767,2.223,98.0301,0.0843333,0.00851822,0.865247,-5.12149,1.63498,-0.0413268,0.412875,0.456915,0.159654,-1.9,4.7,0,12417,49.364,25.789,12730.5
4451439107,0.634767,2.223,98.0394,0.073916,0.0262061,0.866896,-5.12057,1.70019,-0.0481275,0.285983,0.345975,-0.0981563,-1.9,4.7,0,12417,49.364,25.789,12730.5
4451539468,0.634767,2.223,98.0537,0.0649802,0.0390423,0.86844,-5.12161,1.72884,-0.0316334,0.0554834,0.183125,-0.105797,-1.9,4.7,0,12417,49.364,25.789,12730.5
4451639798,0.634767,2.223,98.0633,0.0561253,0.0462429,0.868582,-5.1284,1.7476,-0.0470224,0.00658636,0.145751,-0.054589,-1.9,4.7,0,12417,49.364,25.789,12730.5
4451740217,0.634767,2.223,98.0641,0.0582255,0.0508478,0.869322,-5.13373,1.76513,-0.041204,-0.00701834,0.0800119,-0.178413,-1.9,4.7,0,12417,49.364,25.789,12730.5
4451840579,0.634767,2.223,98.0657,0.066345,0.0535154,0.86995,-5.13497,1.77094,-0.0681958,-0.0534014,0.0365644,0.0714989,-1.9,4.7,0,12417,49.364,25.789,12730.5
4451940936,0.634766,2.223,98.0677,0.0680813,0.0514423,0.868512,-5.15048,1.78397,-0.0712242,-0.0613281,0.189784,-0.450952,-1.9,4.7,0,12417,49.364,25.789,12730.5
4452041251,0.634766,2.223,98.0705,0.0675789,0.0490486,0.868626,-5.15848,1.79454,-0.0666118,0.0555451,0.115348,0.115204,-1.9,4.7,0,12417,49.364,25.789,12730.5
4452141568,0.634766,2.223,98.0799,0.0605429,0.0500907,0.868992,-5.16563,1.80409,-0.0732809,0.00714808,0.122859,-0.377128,1.62583,-6.57193,0,12417,49.364,25.789,12730.5
4452241866,0.634766,2.223,98.0874,0.0363183,0.0390372,0.868227,-5.16689,1.80365,-0.0655937,0.00501836,0.0919885,0.410334,1.69476,-6.73906,0,12417,49.364,25.789,12730.5
4452342240,0.634766,2.223,98.0815,-0.134098,-0.0352556,0.868633,-5.12942,1.78397,-0.00589238,0.331117,-0.721545,0.53533,1.76583,-6.90927,0,12417,49.543,24.35,12063.7
4452442584,0.634766,2.223,98.0861,-0.270343,-0.086986,0.87911,-4.87052,1.70664,-0.00597804,1.16254,-2.53395,0.203544,1.759,-7.08699,0,12417,49.543,24.35,12063.7
4452542942,0.634766,2.223,98.091,-0.356579,-0.114423,0.888331,-4.50712,1.58164,-0.0457199,1.43522,-3.49063,1.13875,1.75713,-7.24355,0,12417,49.543,24.35,12063.7
4452643299,0.634766,2.223,98.0826,-0.405423,-0.127458,0.893526,-4.08033,1.43007,-0.0691057,1.61631,-4.06092,1.3388,1.78063,-7.40949,0,12417,49.543,24.35,12063.7
4452743668,0.634766,2.223,98.0631,-0.429192,-0.137318,0.897343,-3.61537,1.25842,-0.114001,1.68167,-4.27526,1.97737,1.80434,-7.53301,0,12417,49.543,24.35,12063.7
4452844087,0.634766,2.223,98.037,-0.432142,-0.142451,0.899153,-3.12556,1.06817,-0.14297,1.6302,-4.37544,2.3439,1.83945,-7.65967,0,12417,49.543,24.35,12063.7
4452944443,0.634766,2.223,98.0062,-0.414739,-0.14432,0.898357,-2.61963,0.893364,-0.136912,1.7267,-4.16248,2.67743,1.88342,-7.74295,0,12417,49.543,24.35,12063.7
4453044813,0.634766,2.223,97.9775,-0.382179,-0.131517,0.892283,-2.126,0.742726,-0.131039,1.85975,-4.10705,2.15332,1.96783,-7.8283,0,12417,49.543,24.35,12063.7
4453145293,0.634766,2.223,97.9571,-0.337082,-0.111408,0.884296,-1.66974,0.592503,-0.090389,1.6165,-3.8569,1.86736,2.05566,-7.87574,0,12417,49.543,24.35,12063.7
4453245590,0.634766,2.223,97.9539,-0.283016,-0.0918655,0.879914,-1.28469,0.456672,-0.0614619,1.33295,-3.32523,1.38445,2.11055,-7.92281,0,12417,49.543,24.35,12063.7
4453345984,0.634766,2.223,97.9551,-0.303728,-0.0871659,0.879826,-0.968336,0.34612,-0.0151949,1.12827,-2.90674,0.943284,2.11407,-7.93183,0,12417,49.69,20.38,10126.8
4453446412,0.634766,2.223,97.9584,-0.340168,-0.0915426,0.88092,-0.611944,0.206673,-0.0282392,1.13661,-3.20988,1.20984,2.10694,-7.94011,0,12417,49.69,20.38,10126.8
4453546786,0.634766,2.223,97.9798,-0.366598,-0.0950601,0.882339,-0.232276,0.0571676,-0.0236534,1.21764,-3.57719,1.18407,2.08631,-7.92434,0,12417,49.69,20.38,10126.8
4453647184,0.634766,2.223,97.9994,-0.380502,-0.0961821,0.882782,0.154698,-0.0950649,-0.0265134,1.25502,-3.70411,1.14448,2.07476,-7.90775,0,12417,49.69,20.38,10126.8
4453747524,0.634766,2.223,98.007,-0.383248,-0.0963097,0.882848,0.547503,-0.256357,-0.0338021,1.21342,-3.57141,1.67679,2.05883,-7.87254,0,12417,49.69,20.38,10126.8
4453847825,0.634766,2.223,98.013,-0.381941,-0.095008,0.882986,0.936054,-0.407585,-0.0181291,1.2323,-3.64774,1.35919,2.04254,-7.83332,0,12417,49.69,20.38,10126.8
4453948227,0.634766,2.223,98.025,-0.379861,-0.0925758,0.882295,1.31734,-0.56075,-0.0255261,1.20036,-3.62185,1.3721,2.0275,-7.77881,0,12417,49.69,20.38,10126.8
4454048569,0.634766,2.223,98.0296,-0.375879,-0.0903954,0.881927,1.69147,-0.713938,-0.0274175,1.10756,-3.47023,1.69611,2.00852,-7.7166,0,12417,49.69,20.38,10126.8
4454148962,0.634766,2.223,98.0325,-0.372775,-0.0889835,0.881463,2.05471,-0.861028,-0.0273271,1.14102,-3.3522,1.43529,1.9848,-7.64031,0,12417,49.69,20.38,10126.8
4454249335,0.634766,2.223,98.0316,-0.368102,-0.0864585,0.880961,2.40678,-1.01074,-0.0268688,1.04022,-3.3988,1.32736,1.92486,-7.45583,0,12417,49.69,20.38,10126.8
4454349714,0.634766,2.223,98.0276,-0.365089,-0.0815319,0.879995,2.74983,-1.15519,-0.0281836,1.05669,-3.30086,1.35627,1.89398,-7.34127,0,12417,49.708,20.374,10127.5
4454450086,0.634766,2.223,98.0205,-0.361189,-0.0755508,0.878692,3.07969,-1.29377,-0.0269368,0.978909,-3.12661,1.29416,1.86311,-7.22053,0,12417,49.708,20.374,10127.5
4454550433,0.634766,2.223,98.009,-0.35916,-0.0700122,0.877343,3.39418,-1.44364,-0.0445899,0.798294,-3.11164,1.22543,1.82976,-7.08715,0,12417,49.708,20.374,10127.5
4454650797,0.634766,2.223,98.0009,-0.352216,-0.0677287,0.87672,3.70137,-1.58794,-0.0455743,0.803476,-3.03622,1.35957,1.79335,-6.95591,0,12417,49.708,20.374,10127.5
4454751150,0.634766,2.223,98.0017,-0.346067,-0.0634267,0.875373,3.99744,-1.72705,-0.0507013,0.833412,-2.96883,1.09168,1.75391,-6.79619,0,12417,49.708,20.374,10127.5
4454851489,0.634766,2.223,98.0055,-0.340919,-0.0587632,0.873996,4.2769,-1.8626,-0.0412298,0.689442,-2.80532,1.10164,1.71767,-6.64769,0,12417,49.708,20.374,10127.5
4454951855,0.634766,2.223,98.0056,-0.337695,-0.054679,0.872417,4.53494,-1.99483,-0.0322138,0.587555,-2.65347,1.03229,1.67368,-6.46827,0,12417,49.708,20.374,10127.5
4455052305,0.634766,2.223,98.0095,-0.325054,-0.047318,0.870346,4.78248,-2.13352,-0.015288,0.505431,-2.55568,1.18007,1.63877,-6.30311,0,12417,49.708,20.374,10127.5
4455152714,0.634766,2.223,98.0259,-0.278023,-0.0342749,0.867632,5.04333,-2.28442,-0.00695941,0.412926,-2.25722,0.731119,1.60147,-6.1155,0,12417,49.708,20.374,10127.5
4455253130,0.634767,2.223,98.0349,-0.224935,-0.0228247,0.8667,5.19567,-2.37305,0.0100501,0.339244,-1.68709,0.279667,1.5548,-5.9293,0,12417,49.708,20.374,10127.5
4455353497,0.634767,2.223,98.0399,-0.166413,-0.0138625,0.866561,5.29665,-2.42653,0.0144097,0.284232,-1.11331,0.18857,1.497,-5.7232,0,12373,49.434,26.839,13267.6
4455453827,0.634767,2.223,98.0485,-0.115503,-0.00659632,0.866702,5.34302,-2.44562,0.0115148,0.202366,-0.523117,0.0192066,1.44609,-5.54443,0,12373,49.434,26.839,13267.6
4455554191,0.634767,2.223,98.0586,-0.0687503,0.00331571,0.866991,5.35531,-2.43075,0.013418,0.2002,-0.0542317,0.0227074,1.38551,-5.33822,0,12373,49.434,26.839,13267.6
4455654784,0.634767,2.223,98.0692,-0.0289303,0.0135806,0.867017,5.32962,-2.39565,0.00773318,0.0979001,0.304056,-0.1082,1.33433,-5.16206,0,12373,49.434,26.839,13267.6
4455755126,0.634767,2.223,98.0787,0.00232868,0.0208513,0.866264,5.27597,-2.34832,-0.00727512,0.0436544,0.620874,0.114674,1.28146,-4.96899,0,12373,49.434,26.839,13267.6
4455855473,0.634767,2.223,98.0928,0.0278345,0.03126,0.865552,5.19794,-2.28288,-5.45047e-05,0.030112,0.90523,-0.239535,1.23175,-4.79221,0,12373,49.434,26.839,13267.6
4455955848,0.634767,2.223,98.0964,0.0480824,0.0470052,0.865084,5.08457,-2.21921,-0.0117483,-0.244332,1.09572,-0.125829,1.1752,-4.60011,0,12373,49.434,26.839,13267.6
4456056308,0.634767,2.223,98.0904,0.0574561,0.0595472,0.864164,4.95833,-2.16015,-0.0326343,-0.360293,1.14954,0.0954994,1.12844,-4.43701,0,12373,49.434,26.839,13267.6
4456156706,0.634767,2.223,98.0758,0.0675972,0.0702327,0.864468,4.81677,-2.10823,-0.0454751,-0.5085,1.18347,0.212939,1.07473,-4.26901,0,12373,49.434,26.839,13267.6
4456257085,0.634767,2.223,98.0601,0.0712232,0.0823487,0.864723,4.64821,-2.05965,-0.0658895,-0.711896,1.44199,-0.245867,1.0323,-4.13127,0,12373,49.434,26.839,13267.6
4456357454,0.634767,2.223,98.0409,0.0776979,0.0856502,0.864231,4.48299,-2.02553,-0.0815808,-0.793153,1.28436,0.222169,0.990127,-3.98113,0,12373,49.434,26.839,13267.6
4456457807,0.634767,2.223,98.0401,0.0708521,0.081279,0.863792,4.31043,-1.98728,-0.0817787,-0.735414,1.2883,0.332672,0.955994,-3.84876,0,12373,49.281,28.63,14109.2
4456558150,0.634768,2.223,98.0411,0.0706027,0.0769333,0.864307,4.15986,-1.94773,-0.0662304,-0.613618,1.21887,0.152645,0.916322,-3.71016,0,12373,49.281,28.63,14109.2
4456658528,0.634768,2.223,98.0403,0.0688598,0.0707358,0.863768,4.00486,-1.91254,-0.073875,-0.637093,1.21657,0.27616,0.890906,-3.58886,0,12373,49.281,28.63,14109.2
4456758897,0.634768,2.223,98.0428,0.0709749,0.0593972,0.864061,3.86162,-1.86609,-0.0530263,-0.501118,1.25205,0.0471111,0.860477,-3.46458,0,12373,49.281,28.63,14109.2
4456859252,0.634768,2.223,98.0463,0.0704987,0.0505726,0.86434,3.72242,-1.8117,-0.0518372,-0.417819,1.28138,0.117084,0.837684,-3.34627,0,12373,49.281,28.63,14109.2
4456959637,0.634768,2.223,98.0485,0.062511,0.0401528,0.86393,3.60131,-1.75734,-0.0409192,-0.244598,1.17987,0.125723,0.813252,-3.22408,0,12373,49.281,28.63,14109.2
4457060042,0.634768,2.223,98.048,0.0512146,0.0298379,0.863559,3.48498,-1.70075,-0.0431236,-0.196686,1.1455,-0.0197685,0.793738,-3.10534,0,12373,49.281,28.63,14109.2
4457160454,0.634768,2.223,98.0479,0.0454235,0.0219981,0.863736,3.39724,-1.64399,-0.0504852,-0.0225577,0.941636,-0.142084,0.76739,-2.98147,0,12373,49.281,28.63,14109.2
4457260748,0.634768,2.223,98.0456,0.0435118,0.0242487,0.864817,3.31668,-1.58852,-0.0586945,0.00827858,0.906746,0.0961353,0.744071,-2.87319,0,12373,49.281,28.63,14109.2
4457361130,0.634768,2.223,98.0469,0.0458226,0.0268857,0.866037,3.22577,-1.53648,-0.0491012,-0.0530722,0.966125,-0.0717361,0.715374,-2.75564,0,12373,49.281,28.63,14109.2
4457461908,0.634768,2.223,98.0452,0.0428108,0.0249903,0.867019,3.13239,-1.48278,-0.0497684,-0.0883706,1.00712,0.08483,0.690314,-2.64821,0,12373,49.403,28.26,13961.3
4457564093,0.634768,2.223,98.0429,0.0465833,0.0237787,0.866963,3.05077,-1.43866,-0.045318,-0.1197,0.901664,0.0184158,0.666478,-2.54256,0,12373,49.403,28.26,13961.3
4457664439,0.634768,2.223,98.0494,0.0463837,0.0216085,0.867065,2.972,-1.39055,-0.0510772,-0.0575342,0.943982,-0.176597,0.645627,-2.44254,0,12373,49.403,28.26,13961.3
4457764757,0.634768,2.223,98.0511,0.0528616,0.023116,0.867277,2.88999,-1.34347,-0.0497082,-0.0999605,0.956768,0.0704282,0.620794,-2.33555,0,12373,49.403,28.26,13961.3
4457865095,0.634768,2.223,98.0498,0.0561121,0.0229289,0.867433,2.80531,-1.28627,-0.0476099,-0.0299305,1.063,0.0816635,0.597098,-2.23469,0,12373,49.403,28.26,13961.3
4457965474,0.634768,2.223,98.0456,0.0533079,0.0229719,0.867169,2.72015,-1.22827,-0.0520296,-0.0434498,1.08444,0.0318898,0.572747,-2.13492,0,12373,49.403,28.26,13961.3
4458065836,0.634768,2.223,98.0405,0.0557514,0.0274566,0.867468,2.63583,-1.1843,-0.05305,-0.177248,1.00098,0.10303,0.548837,-2.03639,0,12373,49.403,28.26,13961.3
4458166230,0.634768,2.223,98.0363,0.0536662,0.0297546,0.867854,2.54195,-1.12968,-0.0504342,-0.100943,1.13135,0.216414,0.523956,-1.93985,0,12373,49.403,28.26,13961.3
4458266586,0.634768,2.223,98.0314,0.0565242,0.0313923,0.868272,2.44848,-1.07931,-0.0405995,-0.173191,1.10683,-0.0216093,0.501346,-1.84872,0,12373,49.403,28.26,13961.3
4458366946,0.634768,2.223,98.0315,0.0533288,0.0308274,0.868425,2.36137,-1.03435,-0.0392604,-0.196493,1.09658,0.0227186,0.480289,-1.76782,0,12373,49.403,28.26,13961.3
4458467338,0.634768,2.223,98.0295,0.060067,0.034082,0.868699,2.27163,-0.993337,-0.0333317,-0.250038,1.08993,0.055664,0.458631,-1.67911,0,12373,49.516,24.127,11946.7
4458567749,0.634768,2.223,98.0222,0.0590244,0.032816,0.868715,2.17459,-0.947268,-0.0485833,-0.266916,1.11975,0.113235,0.438605,-1.60067,0,12373,49.516,24.127,11946.7
4458668144,0.634768,2.223,98.0184,0.064618,0.0342779,0.868198,2.0882,-0.90476,-0.0509373,-0.150806,0.982692,0.387515,0.421575,-1.52517,0,12373,49.516,24.127,11946.7
4458768496,0.634768,2.223,98.0143,0.0598592,0.0371038,0.867623,1.98495,-0.847715,-0.0397906,-0.202132,1.22367,-0.0717069,0.40349,-1.45191,0,12373,49.516,24.127,11946.7
4458868852,0.634768,2.223,98.0042,0.0589681,0.0423033,0.867945,1.89387,-0.811339,-0.0451052,-0.293936,1.03651,0.000688978,0.387223,-1.38102,0,12373,49.516,24.127,11946.7
4458969229,0.634769,2.223,97.9962,0.05004,0.0450467,0.867496,1.7975,-0.769942,-0.0475844,-0.260663,1.046,0.152635,0.371203,-1.31259,0,12373,49.516,24.127,11946.7
4459069580,0.634769,2.223,97.9927,0.0469349,0.048921,0.868133,1.70654,-0.746776,-0.0338066,-0.389867,0.889235,0.15528,0.357305,-1.24984,0,12373,49.516,24.127,11946.7
4459169973,0.634769,2.223,97.9968,0.0443407,0.0504357,0.867807,1.61454,-0.722018,-0.0272969,-0.366427,0.901145,0.213505,0.34396,-1.18931,0,12373,49.516,24.127,11946.7
4459270383,0.634769,2.223,98.001,0.0447269,0.0465107,0.86771,1.53257,-0.700361,-0.0242061,-0.273252,0.84585,0.168648,0.334778,-1.13101,0,12373,49.516,24.127,11946.7
4459370708,0.634769,2.223,98.0046,0.0435687,0.0430269,0.867608,1.43584,-0.674314,-0.00911197,-0.288587,0.840543,0.0336677,0.324698,-1.07474,0,12373,49.516,24.127,11946.7
4459470991,0.634769,2.223,98.0121,0.0425631,0.0376766,0.867832,1.35949,-0.646776,-0.0107777,-0.235027,0.847437,-0.0997578,0.318459,-1.02558,0,12373,49.548,22.422,11109.7
4459571351,0.634769,2.223,98.0261,0.0417514,0.0344075,0.8677,1.2853,-0.611645,-0.0164855,-0.174495,0.853751,0.0229577,0.311726,-0.979728,0,12373,49.548,22.422,11109.7
4459671738,0.634769,2.223,98.0283,0.0397434,0.0294292,0.868046,1.21526,-0.590138,-0.0111796,-0.146709,0.709432,-0.011388,0.306659,-0.930403,0,12373,49.548,22.422,11109.7
4459772101,0.634769,2.223,98.0244,0.0391092,0.0236845,0.868379,1.15621,-0.57002,-0.0239354,-0.135949,0.646628,-0.155064,0.299962,-0.884121,0,12373,49.548,22.422,11109.7
4459872469,0.634769,2.223,98.0188,0.0392431,0.0208801,0.868541,1.09671,-0.540102,-0.0372139,-0.101417,0.69103,0.203943,0.297134,-0.83829,0,12373,49.548,22.422,11109.7
4459972822,0.634769,2.223,98.0137,0.0389009,0.0199368,0.86839,1.04028,-0.504501,-0.035958,-0.0177927,0.749869,-0.194633,0.293462,-0.797382,0,12373,49.548,22.422,11109.7
4460073138,0.634769,2.223,97.9991,0.0386223,0.0199673,0.868545,0.984171,-0.469268,-0.042786,0.00484381,0.778834,0.058448,0.289054,-0.754107,0,12373,49.548,22.422,11109.7
4460173570,0.634769,2.223,97.9834,0.0354909,0.0180646,0.868261,0.93396,-0.430179,-0.0440572,0.0138958,0.709689,0.169866,0.283868,-0.716332,0,12373,49.548,22.422,11109.7
4460273934,0.634769,2.223,97.9736,0.0322711,0.0183415,0.867986,0.882308,-0.394395,-0.0354617,-0.0012079,0.727732,-0.00137386,0.279626,-0.680179,0,12373,49.548,22.422,11109.7
4460374229,0.634769,2.223,97.9603,0.0303565,0.0186068,0.867956,0.835521,-0.359829,-0.0385557,0.054763,0.651322,0.0224114,0.27443,-0.64709,0,12373,49.548,22.422,11109.7
4460474583,0.634769,2.223,97.9569,0.0289099,0.0199425,0.867926,0.787793,-0.334222,-0.0329015,-0.0543313,0.591014,-0.0428758,0.268547,-0.614888,0,12328,49.517,23.41,11591.9
4460574938,0.634769,2.223,97.9511,0.0287537,0.0197185,0.867695,0.742461,-0.314243,-0.023431,-0.0276099,0.523791,-0.0229771,0.262859,-0.586695,0,12328,49.517,23.41,11591.9
4460675282,0.634769,2.223,97.954,0.0279762,0.0190603,0.867503,0.695939,-0.283141,-0.0178557,0.0375742,0.599704,0.122727,0.258883,-0.560461,0,12328,49.517,23.41,11591.9
4460775703,0.634769,2.223,97.9574,0.0254564,0.0198142,0.867434,0.649905,-0.258069,-0.00461841,-0.0927135,0.555744,0.0849206,0.254015,-0.535336,0,12328,49.517,23.41,11591.9
4460876080,0.634769,2.223,97.9564,0.0217501,0.0188277,0.867211,0.613854,-0.227156,-0.00912389,0.0481656,0.539535,0.0024108,0.249113,-0.511474,0,12328,49.517,23.41,11591.9
4460976452,0.634769,2.223,97.9531,0.0192305,0.0198823,0.86681,0.579312,-0.198607,-0.00332504,0.0230788,0.472919,-0.0243415,0.243508,-0.488795,0,12328,49.517,23.41,11591.9
4461076853,0.634769,2.223,97.9515,0.0165331,0.0202875,0.866503,0.539196,-0.181683,-0.00938204,-0.0928749,0.456377,-0.0594652,0.23816,-0.466796,0,12328,49.517,23.41,11591.9
4461177275,0.634769,2.223,97.9558,0.0139058,0.0194417,0.866515,0.511214,-0.166382,-8.23084e-05,-0.0328243,0.390139,-0.0498068,0.233223,-0.448893,0,12328,49.517,23.41,11591.9
4461277647,0.634769,2.223,97.9575,0.0120872,0.0190576,0.866469,0.478096,-0.144724,-0.00122395,-0.0197069,0.445585,0.0638629,0.228102,-0.430066,0,12328,49.517,23.41,11591.9
4461378067,0.634769,2.223,97.9515,0.0101417,0.0193122,0.866287,0.451976,-0.118926,-0.00223048,0.0496342,0.382035,-0.128553,0.223109,-0.414138,0,12328,49.517,23.41,11591.9
4461479004,0.634769,2.223,97.9496,0.0094604,0.0198782,0.866485,0.434459,-0.102563,-0.00663212,0.0325367,0.318408,0.246481,0.216797,-0.396785,0,12328,49.517,23.41,11591.9
4461579370,0.634769,2.223,97.9497,0.00940504,0.0204132,0.866832,0.412594,-0.0924315,0.0078273,-0.0140513,0.287731,-0.0448874,0.210338,-0.381261,0,12328,49.499,23.303,11534.8
4461679758,0.634769,2.223,97.9477,0.00959413,0.0214777,0.866875,0.389146,-0.0729906,0.0039498,0.00377642,0.331318,-0.0347976,0.204275,-0.365777,0,12328,49.499,23.303,11534.8
4461780225,0.634769,2.223,97.9507,0.0091402,0.0220142,0.866996,0.361352,-0.063723,0.00732208,-0.104127,0.312028,0.0430421,0.198767,-0.353708,0,12328,49.499,23.303,11534.8
4461880602,0.634769,2.223,97.9545,0.00843696,0.0194018,0.866919,0.342623,-0.0526899,0.00248799,0.0177554,0.232583,0.00370878,0.193519,-0.340595,0,12328,49.499,23.303,11534.8
4461980961,0.634769,2.223,97.9512,0.00904631,0.0188794,0.866847,0.315815,-0.035855,-0.0066056,-0.0368464,0.353682,-0.0573339,0.188147,-0.32928,0,12328,49.499,23.303,11534.8
4462081313,0.634769,2.223,97.9452,0.00656278,0.0182814,0.866617,0.302288,-0.0104205,-0.00411899,0.107401,0.278232,-0.00847243,0.182607,-0.318142,0,12328,49.499,23.303,11534.8
4462181697,0.634769,2.223,97.9399,0.00553752,0.0192349,0.866549,0.295325,0.00619613,-0.00238351,0.105057,0.183715,0.0367581,0.176558,-0.308853,0,12328,49.499,23.303,11534.8
4462282081,0.634769,2.223,97.9295,0.00603239,0.0195528,0.866599,0.28786,0.0205126,-0.00242785,0.0792269,0.173136,0.136103,0.169019,-0.298215,0,12328,49.499,23.303,11534.8
4462382517,0.634769,2.223,97.9221,0.00677535,0.0199087,0.866944,0.267953,0.0397011,-0.00620912,0.0550345,0.319374,0.117599,1.9,2.2,0,12328,49.499,23.303,11534.8
4462482851,0.634769,2.223,97.9184,0.0128115,0.0211819,0.867321,0.247917,0.04939,-0.00128108,-0.0322952,0.236064,0.040046,1.9,2.2,0,12328,49.499,23.303,11534.8
4462583218,0.634769,2.223,97.9189,0.0319448,0.024675,0.868187,0.224562,0.0680214,0.00443493,0.0157658,0.411401,0.0153143,1.9,2.2,0,12328,49.499,23.303,11534.8
4462683563,0.634769,2.223,97.9293,0.0378404,0.0269985,0.868807,0.169091,0.091247,0.0140238,-0.183572,0.563859,-0.104629,1.9,2.2,0,12328,49.499,23.303,11534.8
4462783906,0.634769,2.223,97.939,0.0386697,0.0291609,0.869217,0.130183,0.119339,0.0261619,-0.049829,0.492372,0.0158545,1.9,2.2,0,12328,49.499,23.303,11534.8
4462884311,0.634769,2.223,97.948,0.034354,0.0303076,0.86935,0.0864996,0.144585,0.0247861,-0.110643,0.492217,-0.0846093,1.9,2.2,0,12328,49.499,23.303,11534.8
4462984644,0.634769,2.223,97.9492,0.0297606,0.0305289,0.869767,0.0452937,0.159156,0.0186576,-0.162116,0.442156,-0.00118916,1.9,2.2,0,12328,49.499,23.303,11534.8
4463085009,0.634769,2.223,97.9506,0.0226455,0.0317868,0.87018,0.00231169,0.182577,0.0149908,-0.0528334,0.466815,0.0388072,1.9,2.2,0,12328,49.499,23.303,11534.8
4463185372,0.634769,2.223,97.9475,0.0131205,0.0344545,0.87024,-0.0290314,0.198789,0.0148812,-0.0638193,0.34135,-0.110581,1.9,2.2,0,12328,49.499,23.303,11534.8
4463285734,0.634769,2.223,97.9403,0.00462172,0.0387166,0.870339,-0.0501349,0.20199,0.00923745,-0.146384,0.179617,0.196412,1.9,2.2,0,12328,49.499,23.303,11534.8
4463386104,0.634769,2.223,97.9412,-0.00558551,0.0427473,0.869938,-0.0709618,0.193556,0.0195047,-0.18499,0.118999,-0.0234276,1.9,2.2,0,12328,49.499,23.303,11534.8
4463486504,0.634769,2.223,97.9478,-0.0143024,0.0453366,0.87007,-0.0854343,0.168773,0.0167635,-0.316598,-0.0831501,-0.0399163,1.9,2.2,0,12328,49.499,23.303,11534.8
4463586839,0.634769,2.223,97.9545,0.060275,-0.0485926,0.87064,-0.103798,0.131355,0.0441939,-0.304371,-0.0790537,0.460742,1.9,2.2,0,12328,49.468,24.085,11914.4
4463687230,0.634769,2.223,97.9669,0.190235,-0.160002,0.854257,-0.112332,0.2886,0.0445577,1.35223,1.37234,-0.343855,1.9,2.2,0,12328,49.468,24.085,11914.4
4463787583,0.634769,2.223,97.973,0.277459,-0.221925,0.836286,-0.144024,0.583104,-0.0271175,2.07877,2.20767,0.556397,1.9,2.2,0,12328,49.468,24.085,11914.4
4463887939,0.634769,2.223,97.9568,0.32508,-0.246858,0.826354,-0.203605,0.990267,-0.0370777,2.56301,2.91722,1.50228,1.9,2.2,0,12328,49.468,24.085,11914.4
4463988322,0.634769,2.223,97.9473,0.311397,-0.224757,0.832078,-0.275351,1.4352,-0.0316224,2.55805,3.01676,1.87496,1.9,2.2,0,12328,49.468,24.085,11914.4
4464088666,0.634769,2.223,97.9376,0.266664,-0.184914,0.842155,-0.354141,1.82656,-0.00474084,2.13674,2.80404,1.53026,1.9,2.2,0,12328,49.468,24.085,11914.4
4464189030,0.634769,2.223,97.9168,0.215998,-0.145892,0.850491,-0.417692,2.13492,0.00421879,1.72721,2.19832,1.03839,1.9,2.2,0,12328,49.468,24.085,11914.4
4464289393,0.634769,2.223,97.9195,0.170497,-0.113442,0.856145,-0.471773,2.37744,0.0112455,1.34968,1.81848,0.642305,1.9,2.2,0,12328,49.468,24.085,11914.4
4464389807,0.634769,2.223,97.928,0.130179,-0.0853296,0.860112,-0.521497,2.56403,0.0148045,0.96792,1.42377,0.297286,2.5,4.8,0,12328,49.468,24.085,11914.4
4464490176,0.634769,2.223,97.9268,0.10983,-0.0637302,0.859773,-0.546636,2.70118,0.0171335,0.743896,0.940573,0.385996,2.5,4.8,0,12328,49.468,24.085,11914.4
4464590534,0.634769,2.223,97.9301,0.185275,-0.0648938,0.857656,-0.566067,2.81287,0.0361513,0.634897,0.965912,-0.0379178,2.5,4.8,0,12328,49.454,24.094,11915.4
4464690892,0.634769,2.223,97.9374,0.278971,-0.0811335,0.853901,-0.690592,3.03902,-0.0349361,0.768014,2.12925,0.366291,2.5,4.8,0,12328,49.454,24.094,11915.4
4464791251,0.634769,2.223,97.9457,0.346652,-0.0888932,0.851544,-0.870523,3.31036,-0.0389055,0.761754,2.90822,1.20474,2.5,4.8,0,12328,49.454,24.094,11915.4
4464891609,0.634769,2.223,97.9469,0.380724,-0.0936397,0.849712,-1.08571,3.6294,-0.0141436,0.9117,3.22328,1.57086,2.5,4.8,0,12328,49.454,24.094,11915.4
4464991922,0.634769,2.223,97.9503,0.378625,-0.0909737,0.850558,-1.3116,3.95629,-0.000289584,0.948652,3.39558,1.56914,2.5,4.8,0,12328,49.454,24.094,11915.4
4465092335,0.634769,2.223,97.9491,0.338484,-0.0813008,0.853768,-1.5285,4.25765,0.00786004,0.891285,3.13907,1.31939,2.5,4.8,0,12328,49.454,24.094,11915.4
4465192677,0.634769,2.223,97.9442,0.28721,-0.0682401,0.856991,-1.70159,4.50781,0.0201281,0.728478,2.68197,0.720863,2.5,4.8,0,12328,49.454,24.094,11915.4
4465293026,0.634769,2.223,97.9447,0.244711,-0.0575996,0.859566,-1.84237,4.70387,0.01768,0.572189,2.09676,0.720953,2.5,4.8,0,12328,49.454,24.094,11915.4
4465393360,0.634769,2.223,97.9434,0.199427,-0.0494076,0.861398,-1.95335,4.86199,0.0112221,0.510227,1.68403,0.299158,2.5,4.8,0,12328,49.454,24.094,11915.4
4465493712,0.634769,2.223,97.9376,0.16338,-0.0417832,0.863389,-2.04249,4.98885,0.00849338,0.478337,1.27766,0.579612,2.5,4.8,0,12328,49.454,24.094,11915.4
4465594040,0.634769,2.223,97.941,0.136055,-0.0343937,0.864602,-2.10478,5.085,0.0172739,0.393844,0.957548,0.118147,2.5,4.8,0,12328,49.454,24.094,11915.4
4465694397,0.634769,2.223,97.9414,0.112895,-0.0286422,0.864725,-2.15288,5.1482,0.0139752,0.239352,0.697402,0.00333383,2.5,4.8,0,12328,49.454,24.094,11915.4
4465794737,0.634769,2.223,97.9404,0.101959,-0.0253957,0.865615,-2.19079,5.20421,0.0228659,0.249643,0.673346,-0.0715858,2.5,4.8,0,12328,49.454,24.094,11915.4
4465895086,0.634768,2.223,97.9525,0.0885656,-0.0225834,0.865966,-2.21868,5.24988,0.0140619,0.195254,0.488847,-0.0328518,2.5,4.8,0,12328,49.454,24.094,11915.4
4465995396,0.634768,2.223,97.968,0.0804405,-0.0221054,0.865329,-2.23638,5.28509,0.0160083,0.230774,0.391339,-0.118261,2.5,4.8,0,12328,49.454,24.094,11915.4
4466095654,0.634768,2.223,97.9705,0.0779389,-0.0202001,0.865914,-2.25124,5.32222,0.00645901,0.298785,0.392623,-0.0622326,2.5,4.8,0,12328,49.454,24.094,11915.4
4466196083,0.634768,2.223,97.972,0.0773746,-0.0171963,0.866192,-2.27035,5.35268,0.00262906,0.196361,0.384506,-0.0626678,2.5,4.8,0,12328,49.431,24.187,11955.9
4466296450,0.634768,2.223,97.9765,0.0759826,-0.014125,0.86682,-2.29085,5.38072,-0.00993105,0.119517,0.42509,-0.271135,2.5,4.8,0,12328,49.431,24.187,11955.9
4466396855,0.634768,2.223,97.9765,0.068756,-0.0136552,0.867077,-2.31277,5.40247,-0.0110447,0.112788,0.386126,0.317,-0.2,4.7,0,12328,49.431,24.187,11955.9
4466497217,0.634768,2.223,97.9761,0.0566413,0.00989199,0.865832,-2.31816,5.41154,0.00429424,0.141222,0.146108,0.803336,-0.2,4.7,0,12328,49.431,24.187,11955.9
4466597598,0.634768,2.223,97.9731,0.027132,0.17246,0.86564,-2.34212,5.375,0.064084,-0.759308,-0.055283,0.186317,-0.2,4.7,0,12328,49.431,24.187,11955.9
4466697950,0.634768,2.223,97.972,0.0191908,0.317266,0.869507,-2.45541,5.16737,-0.00602575,-2.54111,-0.37504,-0.21937,-0.2,4.7,0,12328,49.431,24.187,11955.9
4466798291,0.634768,2.223,97.9607,0.0272514,0.388642,0.876056,-2.66079,4.852,-0.0487482,-3.48624,-0.371357,1.54108,-0.2,4.7,0,12328,49.431,24.187,11955.9
4466898645,0.634768,2.223,97.9639,0.0367467,0.380664,0.881557,-2.91873,4.49788,-0.0277461,-3.73551,-0.204892,1.8369,-0.2,4.7,0,12328,49.431,24.187,11955.9
4466999002,0.634768,2.223,97.9703,0.0458541,0.329688,0.883116,-3.15232,4.18519,-0.0240375,-3.54277,-0.0957685,1.0829,-0.2,4.7,0,12328,49.431,24.187,11955.9
4467099352,0.634768,2.223,97.9647,0.0531619,0.264402,0.881625,-3.34229,3.92945,-0.0159136,-2.70884,-0.143202,1.11155,-0.2,4.7,0,12328,49.431,24.187,11955.9
4467199778,0.634768,2.223,97.9498,0.0592958,0.206382,0.878264,-3.49095,3.74253,-0.00958853,-2.08394,0.0474154,0.417072,-0.2,4.7,0,12328,49.389,25.837,12760.6
4467300141,0.634768,2.223,97.9469,0.0669447,0.164329,0.875609,-3.60565,3.60835,-0.0162207,-1.52667,0.145658,0.293468,-0.2,4.7,0,12328,49.389,25.837,12760.6
4467400450,0.634768,2.223,97.9504,0.072941,0.131932,0.873655,-3.69484,3.5093,-0.0137183,-1.10767,0.191989,0.249934,-0.2,4.7,0,12328,49.389,25.837,12760.6
4467500809,0.634768,2.223,97.9388,0.0744938,0.110501,0.872181,-3.76824,3.42788,-0.0167246,-0.921806,0.187307,0.125722,-0.2,4.7,0,12328,49.389,25.837,12760.6
4467601171,0.634768,2.223,97.9257,0.0773119,0.0952312,0.871273,-3.83696,3.36338,-0.014628,-0.738762,0.237757,0.269258,-0.2,4.7,0,12328,49.389,25.837,12760.6
4467701541,0.634768,2.223,97.9237,0.0734521,0.0833646,0.870957,-3.9017,3.31061,-0.0115847,-0.606192,0.234153,0.349979,-0.2,4.7,0,12328,49.389,25.837,12760.6
4467802861,0.634768,2.223,97.9169,0.0667612,0.0730499,0.870363,-3.95006,3.26283,0.0082738,-0.557637,0.135123,0.228402,-0.2,4.7,0,12328,49.389,25.837,12760.6
4467906950,0.634768,2.223,97.9157,0.0674352,0.0637015,0.869892,-3.97534,3.2252,0.00975786,-0.379856,0.0239316,0.104548,-0.2,4.7,0,12328,49.389,25.837,12760.6
4468007309,0.634767,2.223,97.9175,0.071574,0.0541542,0.868993,-3.99546,3.20223,-0.00408651,-0.254374,0.0917797,0.0539179,-0.2,4.7,0,12328,49.389,25.837,12760.6
4468107718,0.634767,2.223,97.9229,0.0711121,0.0485746,0.868226,-4.00924,3.19876,0.00902763,-0.118038,0.103931,-0.0962179,-0.2,4.7,0,12328,49.389,25.837,12760.6
4468208082,0.634767,2.223,97.9257,0.0664904,0.0456678,0.868057,-4.02363,3.188,0.015019,-0.182697,0.0688429,0.0146693,-0.2,4.7,0,12283,49.432,23.511,11622
4468308391,0.634767,2.223,97.9303,0.0625279,0.0445302,0.867899,-4.04271,3.18791,0.0287496,-0.137966,0.0791122,0.0498751,-0.2,4.7,0,12283,49.432,23.511,11622
4468408769,0.634767,2.223,97.9341,0.0638731,0.039987,0.868125,-4.04868,3.19529,0.0239972,-0.0140787,0.0465625,0.161466,-2.08544,-7.08772,0,12283,49.432,23.511,11622
4468509138,0.634767,2.223,97.9372,0.0504773,0.0380855,0.869149,-4.04626,3.20073,0.0234195,-0.015143,0.0146803,-0.110686,-2.09579,-7.27601,0,12283,49.432,23.511,11622
4468609497,0.634767,2.223,97.9479,-0.107124,0.0286292,0.866237,-4.03241,3.19795,0.07881,0.0431145,-0.376743,0.342756,-2.07157,-7.46485,0,12283,49.432,23.511,11622
4468709903,0.634767,2.223,97.9658,-0.255789,0.0269851,0.865802,-3.85069,3.07407,0.0882743,0.121133,-2.38734,-0.0187848,-2.07478,-7.6466,0,12283,49.432,23.511,11622
4468810310,0.634767,2.223,97.9717,-0.351134,0.0312077,0.864815,-3.58388,2.86979,0.035022,0.0776264,-3.31985,1.02938,-2.06713,-7.81957,0,12283,49.432,23.511,11622
4468910675,0.634767,2.223,97.976,-0.402952,0.0324403,0.864353,-3.23578,2.597,0.0224001,0.0610384,-4.18995,1.3585,-2.07068,-7.974,0,12283,49.432,23.511,11622
4469011029,0.634767,2.223,97.9819,-0.422811,0.0315652,0.864043,-2.80352,2.24768,-0.0303276,0.00230021,-4.22211,1.86062,-2.06983,-8.11503,0,12283,49.432,23.511,11622
4469111388,0.634767,2.223,97.9644,-0.426409,0.0259352,0.865627,-2.50509,2.00178,-0.0443916,-0.00782002,-4.32243,1.92738,-2.09055,-8.22328,0,12283,49.432,23.511,11622
4469211729,0.634767,2.223,97.9409,-0.420207,0.013638,0.870084,-2.04746,1.63971,-0.0606037,0.113136,-4.39909,1.85302,-2.13088,-8.32504,0,12283,49.44,24.168,11948.7
4469312091,0.634767,2.223,97.9274,-0.400242,0.000265211,0.875554,-1.66044,1.36533,-0.0746136,0.365362,-4.3044,1.71775,-2.18422,-8.37867,0,12283,49.44,24.168,11948.7
4469412492,0.634767,2.223,97.9099,-0.359471,-0.00131315,0.877045,-1.28721,1.11504,-0.07539,0.410075,-3.91547,1.66646,-2.20168,-8.43942,0,12283,49.44,24.168,11948.7
4469512821,0.634767,2.223,97.8939,-0.312106,0.0037404,0.877432,-0.961675,0.892484,-0.0567121,0.284465,-3.39984,1.63012,-2.21441,-8.46207,0,12283,49.44,24.168,11948.7
4469613646,0.634767,2.223,97.8904,-0.329874,0.0354711,0.870678,-0.679336,0.684803,-0.0163977,0.0867332,-3.27581,0.916748,-2.16336,-8.49355,0,12283,49.44,24.168,11948.7
4469714086,0.634767,2.223,97.8984,-0.356916,0.0655357,0.861522,-0.390257,0.419332,-0.010321,-0.20811,-3.47429,1.63655,-2.09345,-8.49464,0,12283,49.44,24.168,11948.7
4469814445,0.634767,2.223,97.9083,-0.379705,0.0857341,0.854135,-0.109539,0.11714,0.0125419,-0.490709,-3.68108,1.56424,-2.036,-8.49263,0,12283,49.44,24.168,11948.7
4469914808,0.634767,2.223,97.9311,-0.38642,0.0983795,0.84898,0.183847,-0.199401,0.016941,-0.533201,-3.95649,1.36372,-1.99986,-8.46562,0,12283,49.44,24.168,11948.7
4470015179,0.634767,2.223,97.9579,-0.382456,0.107864,0.845353,0.453291,-0.517185,0.019249,-0.687084,-3.71254,1.41539,-1.97321,-8.4327,0,12283,49.44,24.168,11948.7
4470115538,0.634767,2.223,97.9706,-0.37487,0.114162,0.843507,0.709783,-0.831402,0.0173969,-0.72685,-3.57766,1.45406,-1.9604,-8.38017,0,12283,49.44,24.168,11948.7
4470215840,0.634767,2.223,97.9791,-0.363763,0.119631,0.841587,0.94138,-1.13917,0.0111562,-0.797387,-3.43885,1.37656,-1.94294,-8.32323,0,12283,49.539,22.97,11379.1
4470317749,0.634767,2.223,97.9815,-0.356105,0.123263,0.840296,1.15971,-1.43646,0.00769823,-0.822053,-3.3371,1.31541,-1.92701,-8.25339,0,12283,49.539,22.97,11379.1
4470418173,0.634767,2.223,97.9765,-0.349758,0.125109,0.838994,1.37237,-1.72413,0.00195445,-0.747064,-3.20042,1.33795,-1.90875,-8.1757,0,12283,49.539,22.97,11379.1
4470518531,0.634767,2.223,97.9674,-0.343885,0.126516,0.838513,1.57606,-1.99343,-0.0111249,-0.655291,-3.00479,1.31142,-1.8925,-8.08597,0,12283,49.539,22.97,11379.1
4470618906,0.634767,2.223,97.952,-0.336361,0.125475,0.838893,1.76591,-2.26641,-0.0154944,-0.731215,-2.97522,1.36475,-1.88222,-7.98669,0,12283,49.539,22.97,11379.1
4470719261,0.634767,2.223,97.9367,-0.330598,0.124263,0.839572,1.95069,-2.53387,-0.0135814,-0.750969,-2.96618,1.10445,-1.8682,-7.88002,0,12283,49.539,22.97,11379.1
4470819617,0.634767,2.223,97.924,-0.326518,0.122192,0.840567,2.12674,-2.78163,-0.00783603,-0.715918,-2.82232,0.981676,-1.85566,-7.76164,0,12283,49.539,22.97,11379.1
4470919972,0.634767,2.223,97.9233,-0.323134,0.12273,0.840695,2.29345,-3.02248,-0.000815092,-0.736643,-2.71217,0.984014,-1.83166,-7.64463,0,12283,49.539,22.97,11379.1
4471020379,0.634767,2.223,97.9221,-0.31965,0.12374,0.840578,2.45749,-3.26609,-0.000911591,-0.740705,-2.68632,1.08388,-1.80414,-7.50878,0,12283,49.539,22.97,11379.1
4471120722,0.634767,2.223,97.9159,-0.316894,0.125105,0.840025,2.60981,-3.49701,0.0080191,-0.725337,-2.51221,1.11486,-1.76704,-7.36399,0,12283,49.539,22.97,11379.1
4471221069,0.634767,2.223,97.9127,-0.313063,0.128924,0.839388,2.74222,-3.72801,0.00910335,-0.83507,-2.41617,1.03933,-1.72973,-7.21015,0,12283,49.539,22.97,11379.1
4471321462,0.634767,2.223,97.9165,-0.31443,0.13064,0.839043,2.86926,-3.95301,0.0195215,-0.822215,-2.38442,0.870537,-1.68979,-7.05643,0,12283,49.562,23.3,11547.9
4471424329,0.634767,2.223,97.9222,-0.315675,0.132726,0.839039,2.99681,-4.17532,0.0184251,-0.823485,-2.41296,0.82921,-1.65122,-6.88791,0,12283,49.562,23.3,11547.9
4471525851,0.634767,2.223,97.9358,-0.31472,0.134958,0.83868,3.12109,-4.39707,0.0233296,-0.839001,-2.41418,0.642729,-1.60653,-6.72765,0,12283,49.562,23.3,11547.9
4471626219,0.634767,2.223,97.952,-0.308177,0.132511,0.839509,3.23874,-4.6166,0.0195057,-0.900511,-2.37058,0.698934,-1.56567,-6.53795,0,12283,49.562,23.3,11547.9
4471726563,0.634767,2.223,97.961,-0.267127,0.118983,0.844795,3.35025,-4.82174,0.0301135,-0.699251,-2.03216,0.942696,-1.55649,-6.36706,0,12283,49.562,23.3,11547.9
4471826921,0.634767,2.223,97.9715,-0.214017,0.104374,0.84995,3.42914,-4.98026,0.0322315,-0.674834,-1.67293,0.181029,-1.53775,-6.16293,0,12283,49.562,23.3,11547.9
4471927272,0.634767,2.223,97.9749,-0.163465,0.0903153,0.85428,3.48023,-5.09685,0.0331709,-0.490418,-1.07943,0.460413,-1.5133,-5.97747,0,12283,49.562,23.3,11547.9
4472027608,0.634768,2.223,97.9723,-0.116366,0.0717159,0.857843,3.50055,-5.16895,0.0347999,-0.348725,-0.614223,0.168867,-1.47604,-5.76372,0,12283,49.562,23.3,11547.9
4472127976,0.634768,2.223,97.9663,-0.0727418,0.054143,0.860545,3.50029,-5.18587,0.0299536,-0.11241,-0.14288,0.213244,-1.43538,-5.56411,0,12283,49.562,23.3,11547.9
4472228379,0.634768,2.223,97.957,-0.0320098,0.0344243,0.862497,3.48309,-5.16302,0.0281793,0.137132,0.244913,0.0375466,-1.3883,-5.35779,0,12283,49.562,23.3,11547.9
4472328707,0.634768,2.223,97.9468,0.00573734,0.0212106,0.863967,3.44609,-5.10312,0.0198393,0.212279,0.614254,-0.0848918,-1.33885,-5.16043,0,12283,49.334,26.93,13285.6
4472429057,0.634768,2.223,97.9295,0.0278831,0.0149351,0.864409,3.38865,-5.00436,0.00385945,0.321276,1.02937,0.171039,-1.28308,-4.95822,0,12283,49.334,26.93,13285.6
4472529431,0.634768,2.223,97.9238,0.04705,0.0112184,0.864382,3.32183,-4.89632,0.000318879,0.370979,1.16233,-0.0536176,-1.23169,-4.7779,0,12283,49.334,26.93,13285.6
4472629789,0.634768,2.223,97.9137,0.064773,0.00475705,0.864795,3.24495,-4.77506,-0.00153615,0.413374,1.24981,0.288851,-1.18145,-4.59214,0,12283,49.334,26.93,13285.6
4472730166,0.634768,2.223,97.9135,0.0822736,-0.00109984,0.865081,3.15437,-4.63559,-0.00205588,0.408786,1.43197,0.212264,-1.13603,-4.42356,0,12283,49.334,26.93,13285.6
4472830538,0.634768,2.223,97.9126,0.0945424,-0.00521877,0.864881,3.06068,-4.48151,0.00414863,0.516775,1.58096,0.263485,-1.08195,-4.23214,0,12283,49.334,26.93,13285.6
4472930900,0.634768,2.223,97.9139,0.101906,-0.00989908,0.864484,2.95088,-4.32376,0.00645215,0.461984,1.6491,0.295201,-1.03776,-4.07756,0,12283,49.334,26.93,13285.6
4473031264,0.634768,2.223,97.9278,0.10033,-0.0101133,0.864739,2.82047,-4.11708,0.0104652,0.543155,1.68286,0.263187,-0.995106,-3.91885,0,12283,49.334,26.93,13285.6
4473131615,0.634768,2.223,97.9321,0.0969649,-0.0109026,0.864703,2.74435,-3.99097,0.00200929,0.558423,1.56784,-0.0397254,-0.9567,-3.78108,0,12283,49.334,26.93,13285.6
4473231921,0.634768,2.223,97.9395,0.0924003,-0.00790551,0.865554,2.62502,-3.7917,-0.000513126,0.557198,1.53697,0.235559,-0.922129,-3.64337,0,12283,49.334,26.93,13285.6
4473332334,0.634768,2.223,97.9533,0.0835574,-0.00363091,0.86562,2.52939,-3.64036,-0.00199793,0.486361,1.50857,0.0371914,-0.883507,-3.50792,0,12283,49.242,27.269,13427.8
4473432701,0.634768,2.223,97.9645,0.075171,-0.000317112,0.865836,2.43089,-3.49808,-0.00675582,0.408427,1.46656,0.213399,-0.846953,-3.3742,0,12283,49.242,27.269,13427.8
4473533052,0.634768,2.223,97.9736,0.0699561,0.00253019,0.865958,2.34627,-3.36968,-0.0054543,0.401626,1.27848,-0.127794,-0.81258,-3.25549,0,12283,49.242,27.269,13427.8
4473633425,0.634768,2.223,97.9819,0.0601265,0.00716173,0.866266,2.2614,-3.24429,-0.00585471,0.379915,1.21955,0.00308413,-0.778973,-3.13315,0,12283,49.242,27.269,13427.8
4473733837,0.634768,2.223,97.9912,0.0544056,0.00682317,0.866244,2.18514,-3.14499,-0.00390702,0.24614,1.08483,-0.169301,-0.744952,-3.02158,0,12283,49.242,27.269,13427.8
4473834224,0.634768,2.223,97.9998,0.0487774,0.00729985,0.866551,2.11559,-3.04177,-0.00143405,0.326362,1.06155,0.101407,-0.71258,-2.90718,0,12283,49.242,27.269,13427.8
4473934590,0.634768,2.223,97.9962,0.0494144,0.0066002,0.866486,2.0418,-2.95137,-0.00989507,0.185231,1.06083,-0.179743,-0.680754,-2.8038,0,12283,49.242,27.269,13427.8
4474034992,0.634768,2.223,97.9982,0.0477153,0.00543458,0.866909,1.9752,-2.85745,-0.0121096,0.312162,0.990813,0.0319899,-0.648259,-2.68871,0,12283,49.242,27.269,13427.8
4474135334,0.634768,2.223,98.0006,0.0466914,0.00573722,0.867158,1.91636,-2.76575,-0.0199049,0.333856,0.948734,-0.329881,-0.618457,-2.59039,0,12283,49.242,27.269,13427.8
4474235744,0.634768,2.223,97.9936,0.0470381,0.00456803,0.866902,1.85171,-2.6771,-0.0279213,0.287735,0.996732,0.0365428,-0.587401,-2.48809,0,12283,49.242,27.269,13427.8
4474336200,0.634768,2.223,97.9992,0.0486636,0.00314371,0.867153,1.79191,-2.57963,-0.0227357,0.400313,1.00796,0.0118734,-0.553732,-2.38227,0,12283,49.291,25.951,12791.5
4474438042,0.634768,2.223,98.0056,0.0491737,0.00441829,0.867442,1.73201,-2.48771,-0.0310139,0.335734,1.02799,0.140862,-0.524138,-2.28409,0,12283,49.291,25.951,12791.5
4474538991,0.634768,2.223,98.0072,0.050562,0.00220253,0.867676,1.6721,-2.40286,-0.0217712,0.304796,0.941801,-0.00429832,-0.495974,-2.19106,0,12283,49.291,25.951,12791.5
4474643846,0.634768,2.223,98.0093,0.0481877,0.000260293,0.867204,1.61224,-2.31039,-0.0293664,0.438449,1.01314,-0.0162332,-0.466039,-2.09309,0,12283,49.291,25.951,12791.5
4474744294,0.634769,2.223,98.0121,0.0453511,0.000543011,0.867252,1.56685,-2.21726,-0.0339001,0.479481,0.926728,0.134329,-0.438418,-2.00472,0,12283,49.291,25.951,12791.5
4474844670,0.634769,2.223,98.0101,0.0442656,0.000882013,0.867331,1.51818,-2.12715,-0.0371302,0.404169,0.926458,0.110135,-0.412547,-1.91656,0,12283,49.291,25.951,12791.5
4474945053,0.634769,2.223,98.0051,0.0449696,0.00104906,0.867436,1.46164,-2.05061,-0.0354405,0.313013,0.868845,0.151238,-0.383994,-1.82086,0,12283,49.291,25.951,12791.5
4475045444,0.634769,2.223,98.0002,0.0458625,0.00391505,0.867645,1.41554,-1.96965,-0.0324315,0.362435,0.859863,0.0675341,-0.36001,-1.73576,0,12283,49.291,25.951,12791.5
4475145809,0.634769,2.223,97.9984,0.0446,0.00694413,0.867316,1.35787,-1.89129,-0.0395121,0.310945,0.982233,0.0781968,-0.334103,-1.65226,0,12283,49.291,25.951,12791.5
4475246180,0.634769,2.223,97.9892,0.045765,0.00740336,0.867125,1.30621,-1.81944,-0.0322158,0.290737,0.914928,0.0961175,-0.31142,-1.57434,0,12283,49.291,25.951,12791.5
4475346557,0.634769,2.223,97.9928,0.0466571,0.00612913,0.866797,1.25777,-1.74493,-0.0326352,0.334291,0.876444,0.173515,-0.289427,-1.49692,0,12283,49.436,22.749,11246.2
4475446980,0.634769,2.223,97.999,0.0472175,0.00590463,0.866283,1.20183,-1.66481,-0.0245072,0.308383,0.977398,0.0612763,-0.267665,-1.41848,0,12283,49.436,22.749,11246.2
4475547344,0.634769,2.223,97.9997,0.0461187,0.00372941,0.865961,1.14468,-1.59311,-0.0325585,0.257381,0.95077,-0.0174116,-0.245707,-1.35024,0,12283,49.436,22.749,11246.2
4475647704,0.634769,2.223,98.0032,0.0452975,0.00179262,0.86556,1.10748,-1.52288,-0.0307642,0.368055,0.849863,0.0395675,-0.225933,-1.28591,0,12283,49.436,22.749,11246.2
4475748056,0.634769,2.223,98.0055,0.0451372,0.00158344,0.866125,1.06161,-1.45863,-0.0224025,0.295159,0.82656,-0.0486912,-0.207391,-1.22292,0,12283,49.436,22.749,11246.2
4475848419,0.634769,2.223,98.0117,0.0472091,0.00192591,0.866573,1.01822,-1.39225,-0.0214814,0.297916,0.891769,-0.0902373,-0.190932,-1.16322,0,12283,49.436,22.749,11246.2
4475948791,0.634769,2.223,98.0178,0.049081,0.000946185,0.867445,0.974987,-1.33035,-0.0195178,0.254916,0.843942,0.0208421,-0.175128,-1.10956,0,12283,49.436,22.749,11246.2
4476049157,0.634769,2.223,98.0195,0.0501641,0.00188133,0.867788,0.932866,-1.25747,-0.0226353,0.326524,0.840123,-0.00511742,-0.159108,-1.05344,0,12283,49.436,22.749,11246.2
4476149510,0.634769,2.223,98.012,0.051272,0.0027694,0.868245,0.892214,-1.19177,-0.0220598,0.293082,0.762357,0.00146721,-0.143061,-1.00157,0,12283,49.436,22.749,11246.2
4476249920,0.634769,2.223,98.0024,0.05147,0.00450515,0.868486,0.844666,-1.12538,-0.019241,0.243379,0.794915,0.0725877,-0.115351,-0.909012,0,12283,49.436,22.749,11246.2
4476350274,0.634769,2.223,98.0013,0.0515881,0.0052182,0.868745,0.794956,-1.06188,-0.0231277,0.23573,0.81995,-0.174322,-0.102452,-0.86382,0,12239,49.413,23.08,11404.5
4476450691,0.634769,2.223,98.0013,0.0552439,0.00410411,0.868915,0.740364,-1.00336,-0.027233,0.190056,0.883903,-0.0563357,-0.102599,-0.863807,0,12239,49.413,23.08,11404.5
4476551048,0.634769,2.223,98.0053,0.0517657,0.00394422,0.869059,0.677998,-0.938905,-0.0268832,0.187232,0.935604,0.0297049,-0.0898564,-0.825672,0,12239,49.413,23.08,11404.5
4476651388,0.634769,2.223,98.0009,0.0408244,0.00264053,0.869098,0.625116,-0.875675,-0.0312242,0.204794,0.806145,0.258058,-0.0660071,-0.754032,0,12239,49.413,23.08,11404.5
4476751762,0.634769,2.223,97.9946,0.0379947,-0.000175123,0.868881,0.586496,-0.826607,-0.0279386,0.243363,0.669326,0.0204285,-0.0548702,-0.720457,0,12239,49.413,23.08,11404.5
4476852108,0.634769,2.223,97.9878,0.0389142,-0.00423832,0.868335,0.548883,-0.772777,-0.0277077,0.268817,0.672352,0.129091,-0.0431499,-0.69104,0,12239,49.413,23.08,11404.5
4476952413,0.634769,2.223,97.9794,0.0358868,-0.00551446,0.868031,0.521305,-0.709341,-0.0333001,0.384227,0.638427,0.273711,-0.0329168,-0.66136,0,12239,49.413,23.08,11404.5
4477052732,0.634769,2.223,97.9721,0.0313481,-0.00367113,0.867865,0.495598,-0.644498,-0.0239141,0.364404,0.638054,0.101584,-0.0246917,-0.63437,0,12239,49.413,23.08,11404.5
4477152964,0.634769,2.223,97.9701,0.0263256,-0.00171087,0.86787,0.466133,-0.58474,-0.0223459,0.25199,0.497751,0.00237539,-0.0184941,-0.609979,0,12239,49.413,23.08,11404.5
4477253340,0.634769,2.223,97.9798,0.0224583,0.00028626,0.867971,0.444747,-0.54459,-0.00751265,0.254237,0.538728,0.118355,-0.0132689,-0.585229,0,12239,49.413,23.08,11404.5
4477353667,0.634769,2.223,97.989,0.0188206,0.00186538,0.867892,0.410413,-0.491164,-0.0101813,0.188488,0.509486,-0.158665,-0.00904718,-0.563316,0,12239,49.385,24.049,11876.6
4477454665,0.634769,2.223,97.9864,0.0175824,0.00312214,0.867613,0.397571,-0.451527,-0.00732392,0.244831,0.406836,-0.00087521,-0.00590571,-0.542323,0,12239,49.385,24.049,11876.6
4477555977,0.634769,2.223,97.9866,0.0141303,0.0051528,0.86767,0.382414,-0.423857,-0.00410853,0.14245,0.313994,-0.163837,-0.00342949,-0.521733,0,12239,49.385,24.049,11876.6
4477656535,0.634769,2.223,97.9872,0.0145293,0.00652127,0.867247,0.372557,-0.394454,-0.00528487,0.171106,0.301907,0.0201466,-2.26038e-05,-0.503677,0,12239,49.385,24.049,11876.6
4477756904,0.634769,2.223,97.9869,0.0133946,0.00794867,0.866935,0.35389,-0.362165,-0.00679033,0.140444,0.396779,-0.141823,0.00254912,-0.48571,0,12239,49.385,24.049,11876.6
4477857280,0.634769,2.223,97.9776,0.0114454,0.00962434,0.866771,0.331807,-0.329016,-0.014723,0.138697,0.424385,0.0726882,0.004282,-0.467091,0,12239,49.385,24.049,11876.6
4477957655,0.634769,2.223,97.9752,0.0098367,0.0114434,0.866772,0.313833,-0.306392,-0.017003,0.0822762,0.309567,-0.0435247,0.00515654,-0.45189,0,12239,49.385,24.049,11876.6
4478058095,0.634769,2.223,97.9671,0.00994896,0.0116177,0.866505,0.299786,-0.286148,-0.0210829,0.113049,0.291479,0.118052,-2.6,1.2,0,12239,49.385,24.049,11876.6
4478158457,0.634769,2.223,97.9587,0.0148226,0.0139916,0.866404,0.283437,-0.25883,-0.0110841,0.097672,0.326098,-0.029973,-2.6,1.2,0,12239,49.385,24.049,11876.6
4478258825,0.634769,2.223,97.9593,0.0356225,0.0159116,0.866813,0.259969,-0.223362,-0.00896657,0.0763502,0.457535,0.0376476,-2.6,1.2,0,12239,49.385,24.049,11876.6
4478359183,0.634769,2.223,97.9617,0.0467873,0.0166347,0.866807,0.212474,-0.185917,-0.0075708,0.00976138,0.604249,0.0407216,-2.6,1.2,0,12239,49.385,24.049,11876.6
4478459513,0.634769,2.223,97.9712,0.0527621,0.0161294,0.86688,0.163714,-0.147018,-0.00364772,0.00603473,0.668015,-0.0769528,-2.6,1.2,0,12195,49.345,24.518,12098.4
4478559765,0.634769,2.223,97.9756,0.0524531,0.0145226,0.866845,0.10981,-0.0974697,-0.00501674,0.0603019,0.733843,0.127247,-2.6,1.2,0,12195,49.345,24.518,12098.4
4478660066,0.634769,2.223,97.9792,0.046617,0.0143919,0.866972,0.0568386,-0.0506361,-0.0111717,0.0403856,0.704099,-0.0245786,-2.6,1.2,0,12195,49.345,24.518,12098.4
4478760333,0.634769,2.223,97.9808,0.0389811,0.0146955,0.867121,0.0130299,-0.00957295,-0.0065416,0.0336946,0.57244,0.159774,-2.6,1.2,0,12195,49.345,24.518,12098.4
4478860633,0.634769,2.223,97.9828,0.0331983,0.0154606,0.866983,-0.0245086,0.0264083,-0.00350194,0.0420131,0.586153,-0.0129216,-2.6,1.2,0,12195,49.345,24.518,12098.4
4478960987,0.634769,2.223,97.9763,0.0245028,0.0175202,0.867188,-0.0622414,0.0643045,-0.00795212,0.0283332,0.489691,-0.0609411,-2.6,1.2,0,12195,49.345,24.518,12098.4
4479061316,0.634769,2.223,97.9701,0.0161575,0.0200513,0.867412,-0.084855,0.0950411,-0.00892028,0.0993411,0.327954,-0.190611,-2.6,1.2,0,12195,49.345,24.518,12098.4
4479161669,0.634769,2.223,97.9677,0.0149981,0.0304406,0.869178,-0.11075,0.107862,-0.0124878,-0.0918496,0.24744,0.0687579,-2.6,1.2,0,12195,49.345,24.518,12098.4
4479262039,0.634769,2.223,97.9672,0.0729737,0.159284,0.876062,-0.150422,0.116331,0.0451301,-0.456228,0.48112,0.0634424,-2.6,1.2,0,12195,49.345,24.518,12098.4
4479362402,0.634769,2.223,97.9597,0.130179,0.282467,0.88895,-0.34967,0.0486781,-0.0280701,-2.00057,1.20382,-0.0744241,-2.6,1.2,0,12195,49.345,24.518,12098.4
4479462763,0.634769,2.223,97.9598,0.168485,0.359874,0.901203,-0.654841,-0.083602,-0.0519424,-2.77551,1.41205,1.48943,-2.6,1.2,0,12195,49.358,24.51,12097.6
4479563117,0.634769,2.223,97.972,0.185923,0.389781,0.90729,-1.04524,-0.252265,-0.0369956,-3.42617,1.7742,1.68076,-2.6,1.2,0,12195,49.358,24.51,12097.6
4479663465,0.634769,2.223,97.9795,0.168132,0.360652,0.90153,-1.44006,-0.424945,-0.024698,-3.42092,1.69821,1.77971,-2.6,1.2,0,12195,49.358,24.51,12097.6
4479763821,0.634769,2.223,97.9871,0.140314,0.312188,0.893222,-1.78578,-0.572232,0.0111896,-2.96986,1.55871,1.30431,-2.6,1.2,0,12195,49.358,24.51,12097.6
4479864198,0.634769,2.223,97.9987,0.107496,0.25875,0.885835,-2.05466,-0.693675,0.0114057,-2.49501,1.21802,0.566077,-2.6,1.2,0,12195,49.358,24.51,12097.6
4479964518,0.634769,2.223,98.0097,0.0786132,0.209718,0.880467,-2.25676,-0.784822,0.00673292,-1.83563,0.911999,0.468708,-2.6,1.2,0,12195,49.358,24.51,12097.6
4480064848,0.634769,2.223,98.0108,0.0525686,0.168585,0.876682,-2.40797,-0.862226,0.00117964,-1.40524,0.586946,0.294578,-3.1,4.4,0,12195,49.358,24.51,12097.6
4480166446,0.634769,2.223,98.0134,0.0562293,0.134231,0.874918,-2.50991,-0.938199,0.00569981,-1.06421,0.220232,0.370606,-3.1,4.4,0,12195,49.358,24.51,12097.6
4480267916,0.634769,2.223,98.0225,0.163373,0.107017,0.88508,-2.61235,-0.960508,0.031735,-0.634043,0.90914,-0.266817,-3.1,4.4,0,12195,49.358,24.51,12097.6
4480368324,0.634769,2.223,98.0256,0.276125,0.0920057,0.886025,-2.7883,-0.885279,-0.0339279,-0.475507,2.03145,0.114523,-3.1,4.4,0,12195,49.358,24.51,12097.6
4480468676,0.634769,2.223,98.0178,0.34122,0.0883372,0.884121,-3.05007,-0.730592,-0.0504121,-0.36038,2.83636,1.08836,-3.1,4.4,0,12195,49.364,23.774,11735.8
4480570084,0.634768,2.223,98.0176,0.368409,0.0938481,0.883437,-3.34269,-0.533006,-0.0448787,-0.303819,3.27248,1.18962,-3.1,4.4,0,12195,49.364,23.774,11735.8
4480674291,0.634768,2.223,98.0038,0.372037,0.104167,0.884109,-3.69911,-0.299544,-0.0445981,-0.372797,3.26372,1.42313,-3.1,4.4,0,12195,49.364,23.774,11735.8
4480774642,0.634768,2.223,97.9885,0.365791,0.11415,0.885988,-4.00819,-0.111491,-0.0355836,-0.443802,3.31984,1.42434,-3.1,4.4,0,12195,49.364,23.774,11735.8
4480874954,0.634768,2.223,97.987,0.337465,0.115558,0.884334,-4.31451,0.0565035,-0.0278487,-0.606375,3.09574,1.35035,-3.1,4.4,0,12195,49.364,23.774,11735.8
4480975304,0.634768,2.223,97.9949,0.298097,0.11499,0.882519,-4.58232,0.21018,-0.0166178,-0.517892,2.75016,1.06319,-3.1,4.4,0,12195,49.364,23.774,11735.8
4481075637,0.634768,2.223,97.997,0.253971,0.114304,0.880276,-4.80974,0.331204,-0.00619516,-0.541113,2.27815,0.750075,-3.1,4.4,0,12195,49.364,23.774,11735.8
4481175968,0.634768,2.223,97.9995,0.216732,0.112391,0.878763,-4.99857,0.413966,-9.65726e-05,-0.606296,1.88152,0.391533,-3.1,4.4,0,12195,49.364,23.774,11735.8
4481276403,0.634768,2.223,97.9981,0.184328,0.109685,0.877584,-5.15606,0.477536,-0.0117759,-0.561741,1.44853,0.421894,-3.1,4.4,0,12195,49.364,23.774,11735.8
4481376839,0.634768,2.223,98.0022,0.159426,0.104931,0.876252,-5.27983,0.52166,0.000852898,-0.467897,1.1367,0.254729,-3.1,4.4,0,12195,49.364,23.774,11735.8
4481477214,0.634768,2.223,97.9973,0.141363,0.0975136,0.874719,-5.38874,0.567582,-0.00560442,-0.359315,1.04355,0.172896,-3.1,4.4,0,12195,49.372,25.252,12467.4
4481577579,0.634768,2.223,97.9906,0.124711,0.0918264,0.873469,-5.47986,0.603525,0.00578253,-0.345899,0.869088,0.255383,-3.1,4.4,0,12195,49.372,25.252,12467.4
4481677933,0.634768,2.223,97.9851,0.110136,0.0832657,0.872132,-5.54766,0.627315,-0.00577824,-0.260922,0.649368,-0.0867798,-3.1,4.4,0,12195,49.372,25.252,12467.4
4481778291,0.634768,2.223,97.9791,0.0997441,0.0782326,0.871108,-5.60184,0.646705,-0.00078214,-0.188936,0.52403,0.150234,-3.1,4.4,0,12195,49.372,25.252,12467.4
4481878735,0.634767,2.223,97.9749,0.0927184,0.0748643,0.870916,-5.65205,0.662742,-0.0219418,-0.168482,0.473861,-0.0448404,-3.1,4.4,0,12195,49.372,25.252,12467.4
4481979104,0.634767,2.223,97.9723,0.0845952,0.0677382,0.869916,-5.69564,0.675023,-0.0164184,-0.123787,0.428914,0.000114068,-3.1,4.4,0,12195,49.372,25.252,12467.4
4482079543,0.634767,2.223,97.9644,0.0756308,0.0659572,0.870141,-5.72455,0.691656,-0.0151309,-0.056138,0.324375,0.169587,-2.2,-3.9,0,12195,49.372,25.252,12467.4
4482179914,0.634767,2.223,97.9586,0.0364969,0.0541237,0.868974,-5.75012,0.705059,0.013374,-0.0554931,0.339472,0.835444,-2.2,-3.9,0,12195,49.372,25.252,12467.4
4482280354,0.634767,2.223,97.9683,-0.174375,0.0106627,0.861443,-5.70729,0.693387,0.110637,0.299161,-0.72562,0.585688,-2.2,-3.9,0,12195,49.372,25.252,12467.4
4482380747,0.634767,2.223,97.9846,-0.339998,-0.0235137,0.866964,-5.43318,0.547701,0.126491,0.693952,-3.13371,0.252167,-2.2,-3.9,0,12195,49.372,25.252,12467.4
4482481101,0.634767,2.223,98.0011,-0.41999,-0.0395823,0.874878,-5.08236,0.358084,0.0168052,0.824944,-3.92829,0.609362,-2.2,-3.9,0,12195,49.294,25.996,12814.5
4482581461,0.634767,2.223,98.0038,-0.44703,-0.0509682,0.881751,-4.66329,0.118364,0.00220834,0.852988,-4.3076,1.98901,-2.2,-3.9,0,12195,49.294,25.996,12814.5
4482681851,0.634767,2.223,97.9887,-0.450846,-0.0682788,0.89203,-4.2273,-0.10964,-0.0609956,0.99439,-4.57485,1.15588,-2.2,-3.9,0,12195,49.294,25.996,12814.5
4482782224,0.634767,2.223,97.96,-0.44587,-0.0832663,0.899892,-3.77171,-0.332298,-0.0942221,1.09467,-4.4639,1.8999,-2.2,-3.9,0,12195,49.294,25.996,12814.5
4482882599,0.634767,2.223,97.9135,-0.440162,-0.090024,0.903139,-3.29167,-0.527343,-0.10796,1.35995,-4.2166,2.28226,-2.2,-3.9,0,12195,49.294,25.996,12814.5
4482982941,0.634767,2.223,97.8627,-0.435385,-0.0787121,0.899166,-2.82515,-0.718186,-0.132232,1.32978,-4.18694,2.09856,-2.2,-3.9,0,12195,49.294,25.996,12814.5
4483083266,0.634767,2.223,97.8133,-0.436954,-0.0662638,0.893896,-2.35186,-0.924565,-0.124317,1.28208,-4.07122,2.71931,-2.2,-3.9,0,12195,49.294,25.996,12814.5
4483183630,0.634767,2.223,97.7742,-0.433284,-0.0442315,0.886241,-1.87869,-1.14388,-0.0857789,1.16163,-4.05502,2.63519,-2.2,-3.9,0,12195,49.294,25.996,12814.5
4483285380,0.634767,2.223,97.7561,-0.421978,-0.0168277,0.878808,-1.43052,-1.37734,-0.0498713,0.947401,-4.10791,2.38364,-2.2,-3.9,0,12195,49.294,25.996,12814.5
4483389379,0.634767,2.223,97.7494,-0.405399,0.0141905,0.870782,-1.02522,-1.61581,-0.00972687,0.633844,-3.85371,2.00981,-2.2,-3.9,0,12195,49.294,25.996,12814.5
4483489742,0.634767,2.223,97.7737,-0.391095,0.0416857,0.863149,-0.663912,-1.86699,0.016564,0.372517,-3.65091,1.9759,-2.2,-3.9,0,12195,49.294,25.996,12814.5
4483590064,0.634767,2.223,97.8109,-0.375793,0.0674339,0.856048,-0.333208,-2.10944,0.0549069,0.22242,-3.61313,1.2279,-2.2,-3.9,0,12195,49.422,23.614,11670.5
4483690423,0.634767,2.223,97.8347,-0.36149,0.0917659,0.84984,-0.0571144,-2.3465,0.0622793,-0.0561302,-3.17098,1.33621,-2.2,-3.9,0,12195,49.422,23.614,11670.5
4483790772,0.634767,2.223,97.8661,-0.339892,0.107743,0.846298,0.192289,-2.59798,0.0793942,-0.287354,-3.13454,1.45591,-2.2,-3.9,0,12195,49.422,23.614,11670.5
4483891169,0.634767,2.223,97.8933,-0.296907,0.112734,0.846154,0.427352,-2.88235,0.0932964,-0.602854,-2.67599,0.723596,-2.2,-3.9,0,12195,49.422,23.614,11670.5
4483991513,0.634767,2.223,97.9272,-0.256939,0.110957,0.847923,0.576039,-3.08237,0.101809,-0.544995,-2.27355,0.598297,-2.2,-3.9,0,12195,49.422,23.614,11670.5
4484091942,0.634767,2.223,97.9536,-0.22248,0.106236,0.850188,0.688034,-3.24359,0.103732,-0.496609,-1.80473,0.335843,4.04144,-3.5366,0,12195,49.422,23.614,11670.5
4484192295,0.634767,2.223,97.9683,-0.177882,0.09581,0.851896,0.779135,-3.39176,0.0900033,-0.517964,-1.71112,0.407733,4.10532,-3.44033,0,12195,49.422,23.614,11670.5
4484292613,0.634767,2.223,97.9818,0.0112855,0.00561747,0.865293,0.820999,-3.46028,0.109245,-0.0371195,-0.488571,0.000794903,4.15142,-3.41795,0,12195,49.422,23.614,11670.5
4484392991,0.634767,2.223,98.0024,0.18517,-0.079776,0.860517,0.769346,-3.2852,0.0973558,1.11696,1.65478,-0.177431,4.23189,-3.27534,0,12195,49.422,23.614,11670.5
4484493351,0.634767,2.223,97.9987,0.285693,-0.139817,0.848878,0.651435,-2.97946,0.0165739,1.68174,2.84533,0.285227,4.31756,-3.12058,0,12195,49.422,23.614,11670.5
4484593706,0.634767,2.223,97.9773,0.325263,-0.180061,0.839713,0.501354,-2.58413,-0.0338073,2.02699,3.41956,1.1362,4.38249,-2.97687,0,12151,49.426,21.625,10688.4
4484694056,0.634767,2.223,97.9553,0.324788,-0.198863,0.837077,0.367232,-2.15768,-0.0715429,2.34013,3.46253,1.2375,4.42818,-2.91413,0,12151,49.426,21.625,10688.4
4484794407,0.634767,2.223,97.9272,0.301392,-0.199668,0.839513,0.254536,-1.71775,-0.099061,2.48481,3.18395,1.56983,4.46887,-2.87749,0,12151,49.426,21.625,10688.4
4484894705,0.634767,2.223,97.8884,0.265774,-0.179222,0.845425,0.16297,-1.29488,-0.0880528,2.42655,2.8832,1.41447,4.50447,-2.91207,0,12151,49.426,21.625,10688.4
4484995118,0.634767,2.223,97.8493,0.215852,-0.142538,0.852955,0.0837639,-0.927637,-0.0701414,2.04115,2.43497,1.34546,4.53598,-2.95148,0,12151,49.426,21.625,10688.4
4485095595,0.634767,2.223,97.84,0.166551,-0.100163,0.860101,0.0179486,-0.619478,-0.0259126,1.73033,1.95706,0.92818,4.54823,-3.03063,0,12151,49.426,21.625,10688.4
4485195921,0.634767,2.223,97.8454,0.117784,-0.071788,0.86318,-0.0421408,-0.377831,0.00865532,1.34582,1.50235,0.868339,4.55679,-3.06821,0,12151,49.426,21.625,10688.4
4485296402,0.634767,2.223,97.8614,-0.0130152,-0.154237,0.870254,-0.0817503,-0.195833,0.104017,1.14263,0.846754,1.03907,4.48771,-3.12073,0,12151,49.426,21.625,10688.4
4485398197,0.634767,2.223,97.8895,-0.147353,-0.245624,0.887692,0.0975806,-0.0351586,0.0967566,2.44874,-0.824639,-0.163844,4.34613,-3.17255,0,12151,49.426,21.625,10688.4
4485498600,0.634767,2.223,97.9274,-0.224096,-0.295397,0.899587,0.38412,0.101802,0.0325315,2.90213,-1.59423,0.655725,4.23289,-3.22037,0,12151,49.426,21.625,10688.4
4485600000,0.634767,2.223,97.9566,-0.257266,-0.31512,0.904174,0.762549,0.237194,0.0172763,3.24889,-2.1216,1.4487,4.16931,-3.24198,0,12151,49.366,21.625,10675.4
4485700432,0.634767,2.223,97.9607,-0.261224,-0.320078,0.904418,1.16456,0.364366,0.0171225,3.25772,-2.16284,1.73131,4.12512,-3.24774,0,12151,49.366,21.625,10675.4
4485800705,0.634767,2.223,97.9628,-0.256605,-0.319008,0.90409,1.56231,0.487821,0.0117822,3.26612,-2.18592,1.44126,4.08309,-3.24141,0,12151,49.366,21.625,10675.4
4485900999,0.634767,2.223,97.9558,-0.248093,-0.317299,0.903094,1.95837,0.608476,-0.00507494,3.24782,-2.10069,1.55374,4.02992,-3.21168,0,12151,49.366,21.625,10675.4
4486001307,0.634767,2.223,97.9412,-0.244112,-0.313857,0.902697,2.34652,0.728671,-0.00268765,3.1131,-1.97435,1.67577,3.96546,-3.17782,0,12151,49.366,21.625,10675.4
4486101693,0.634767,2.223,97.9216,-0.240832,-0.310091,0.901737,2.73737,0.850882,-0.0106645,3.13839,-2.07317,1.41431,3.88834,-3.11605,0,12151,49.366,21.625,10675.4
4486202053,0.634767,2.223,97.901,-0.23664,-0.305021,0.900219,3.11209,0.965816,-0.0208515,3.01189,-1.94826,1.49762,3.80698,-3.05435,0,12151,49.366,21.625,10675.4
4486302404,0.634767,2.223,97.889,-0.212649,-0.26807,0.89195,3.48241,1.09193,-0.0143374,3.00266,-1.76928,1.58575,3.76258,-2.96951,0,12151,49.366,21.625,10675.4
4486402794,0.634767,2.223,97.8778,-0.171009,-0.211731,0.881362,3.79249,1.18112,0.00464856,2.45227,-1.60706,1.0917,3.72635,-2.88874,0,12151,49.366,21.625,10675.4
4486503125,0.634767,2.223,97.8705,-0.126226,-0.147397,0.872758,4.02078,1.25577,0.0252231,1.84403,-1.11475,0.610581,3.66304,-2.79219,0,12151,49.366,21.625,10675.4
4486603489,0.634767,2.223,97.8647,-0.0884869,-0.0808514,0.86655,4.15381,1.29807,0.0467132,1.05825,-0.645301,0.584406,3.55943,-2.69113,0,12151,49.315,24.877,12268.1
4486703834,0.634767,2.223,97.8821,-0.0576449,-0.0132061,0.861495,4.21069,1.30391,0.0783901,0.330918,-0.397105,0.254104,3.44436,-2.58325,0,12151,49.315,24.877,12268.1
4486804253,0.634767,2.223,97.9099,-0.0400931,0.0348018,0.859623,4.20523,1.27425,0.079762,-0.219596,-0.189796,0.0577937,3.29477,-2.4753,0,12151,49.315,24.877,12268.1
4486904610,0.634767,2.223,97.9326,-0.0225683,0.0610389,0.860373,4.16489,1.23423,0.0711725,-0.538044,-0.00536957,-0.273752,3.155,-2.3808,0,12151,49.315,24.877,12268.1
4487004962,0.634767,2.223,97.9532,-0.00707001,0.0772503,0.862063,4.08851,1.18069,0.0515304,-0.790154,0.124009,0.162194,3.01428,-2.2931,0,12151,49.315,24.877,12268.1
4487105287,0.634767,2.223,97.9693,0.00463239,0.0812058,0.864269,3.98718,1.12877,0.0600763,-0.903523,0.353854,0.0240661,2.90168,-2.21992,0,12151,49.315,24.877,12268.1
4487205618,0.634768,2.223,97.972,0.0224733,0.0770801,0.866321,3.89489,1.08742,0.0190648,-0.822389,0.360985,-0.129625,2.77584,-2.13945,0,12151,49.315,24.877,12268.1
4487305993,0.634768,2.223,97.9662,0.0370893,0.0657184,0.867759,3.77181,1.07073,0.00530787,-0.792249,0.745037,0.0804968,2.68795,-2.07959,0,12151,49.315,24.877,12268.1
4487406316,0.634768,2.223,97.9618,0.0457357,0.0618984,0.868891,3.65522,1.06862,-0.0091919,-0.631298,0.806136,0.0571567,2.58088,-2.00803,0,12151,49.315,24.877,12268.1
4487506827,0.634768,2.223,97.9497,0.0421898,0.0643886,0.869064,3.52106,1.06675,-0.0177014,-0.7449,0.895313,-0.00394542,2.49864,-1.94806,0,12151,49.315,24.877,12268.1
4487610809,0.634768,2.223,97.9375,0.030974,0.0682467,0.868913,3.3915,1.05247,-0.0225958,-0.814039,0.76595,0.355479,2.4049,-1.88295,0,12151,49.293,25.06,12352.8
4487714195,0.634768,2.223,97.9182,0.0194817,0.0711866,0.868257,3.25216,1.02464,-0.021099,-0.714539,0.569381,0.229389,2.33074,-1.83067,0,12151,49.293,25.06,12352.8
4487814823,0.634768,2.223,97.9028,0.0106321,0.0693791,0.867152,3.14031,0.995884,-0.0194343,-0.726055,0.533196,0.0606808,2.24875,-1.77333,0,12151,49.293,25.06,12352.8
4487915217,0.634768,2.223,97.8975,0.00389369,0.0647556,0.865959,3.03159,0.958287,-0.00269787,-0.722248,0.460628,0.50962,2.18271,-1.72793,0,12151,49.293,25.06,12352.8
4488015565,0.634768,2.223,97.8951,-0.000436069,0.0622741,0.866342,2.93179,0.92015,0.00633645,-0.679032,0.349574,0.266802,2.10539,-1.68012,0,12151,49.293,25.06,12352.8
4488115944,0.634768,2.223,97.8988,-0.00482319,0.0567989,0.866427,2.84485,0.887055,0.0178258,-0.627348,0.33455,-0.0215314,2.04029,-1.63968,0,12151,49.293,25.06,12352.8
4488216350,0.634768,2.223,97.9034,-0.00686034,0.0523089,0.866307,2.76431,0.850117,0.015239,-0.631284,0.297797,0.0613694,1.9688,-1.59371,0,12151,49.293,25.06,12352.8
4488316709,0.634768,2.223,97.9078,-0.00918046,0.0514683,0.86653,2.6916,0.822485,0.0321025,-0.488226,0.283618,0.0472401,1.90226,-1.55128,0,12151,49.293,25.06,12352.8
4488417079,0.634768,2.223,97.913,-0.00988283,0.0499583,0.866629,2.61767,0.788351,0.0293223,-0.57355,0.265304,-0.000365762,1.8318,-1.50551,0,12151,49.293,25.06,12352.8
4488518101,0.634768,2.223,97.9194,-0.00880854,0.0482013,0.865992,2.54491,0.755551,0.0147461,-0.583794,0.228077,0.0167537,1.76876,-1.46184,0,12151,49.293,25.06,12352.8
4488618507,0.634768,2.223,97.9224,-0.00908343,0.0465726,0.865871,2.46751,0.722273,0.0121364,-0.596308,0.28619,0.245094,1.703,-1.41766,0,12151,49.293,25.06,12352.8
4488718864,0.634768,2.223,97.923,-0.0091199,0.0446676,0.865746,2.3995,0.690668,0.012373,-0.557095,0.276451,-0.128562,1.6423,-1.37451,0,12151,49.293,25.06,12352.8
4488819224,0.634768,2.223,97.9236,-0.00643031,0.0416257,0.866041,2.33558,0.658005,0.0138314,-0.546236,0.237604,0.0798175,1.58009,-1.33175,0,12151,49.293,25.06,12352.8
4488919638,0.634768,2.223,97.9233,-0.00500501,0.0407797,0.866398,2.27647,0.634717,0.0087676,-0.502498,0.262218,-0.0459085,1.51798,-1.28694,0,12151,49.293,25.06,12352.8
4489020061,0.634768,2.223,97.9179,-0.0024385,0.0426697,0.866658,2.21006,0.605283,0.015461,-0.552239,0.278653,0.228434,1.45613,-1.24307,0,12151,49.293,25.06,12352.8
4489120484,0.634768,2.223,97.9242,-0.000229749,0.0450771,0.867234,2.14801,0.577172,0.0172556,-0.549024,0.272853,0.120606,1.39552,-1.19953,0,12151,49.293,25.06,12352.8
4489220886,0.634768,2.223,97.9251,0.000725612,0.0458243,0.867259,2.07932,0.546333,0.0184499,-0.588041,0.269051,0.0297181,1.33744,-1.15711,0,12151,49.23,27.046,13314.7
4489321282,0.634768,2.223,97.9178,0.00127795,0.0443189,0.867462,2.01183,0.519367,0.0205571,-0.572349,0.311162,0.134505,1.28353,-1.11516,0,12151,49.23,27.046,13314.7
4489421643,0.634768,2.223,97.9121,0.00355027,0.0434062,0.867936,1.94979,0.492579,0.0206366,-0.566419,0.248475,-0.0481222,1.22597,-1.07175,0,12151,49.23,27.046,13314.7
4489523117,0.634768,2.223,97.9153,0.00759258,0.0427024,0.867528,1.8871,0.475871,0.00991043,-0.529884,0.353205,0.0591495,1.17452,-1.03055,0,12151,49.23,27.046,13314.7
4489627249,0.634768,2.223,97.9116,0.0124725,0.0417557,0.867321,1.817,0.459916,0.0233537,-0.530574,0.414508,0.158925,1.12458,-0.991709,0,12151,49.23,27.046,13314.7
4489732098,0.634768,2.223,97.9177,0.01286,0.0389447,0.867052,1.73543,0.449745,0.00487792,-0.455664,0.4573,-0.0866987,1.0756,-0.953995,0,12151,49.23,27.046,13314.7
4489832452,0.634768,2.223,97.9161,0.0098658,0.0413706,0.866637,1.66466,0.443063,0.015162,-0.514949,0.488841,0.141078,1.02843,-0.918026,0,12151,49.23,27.046,13314.7
4489932751,0.634768,2.223,97.9077,0.00589296,0.0410106,0.86664,1.59622,0.429951,0.014069,-0.497538,0.43272,0.0781862,0.980287,-0.885107,0,12151,49.23,27.046,13314.7
4490033114,0.634768,2.223,97.8946,0.00209748,0.0414774,0.866695,1.53614,0.421302,0.00892955,-0.419758,0.372323,0.26957,0.934844,-0.853804,0,12151,49.23,27.046,13314.7
4490133508,0.634769,2.223,97.8836,0.000380337,0.0425265,0.866642,1.47801,0.407474,0.0188272,-0.433189,0.310844,0.305543,0.893275,-0.825153,0,12151,49.314,23.125,11403.9
4490233868,0.634769,2.223,97.8734,9.80935e-05,0.0416014,0.867032,1.42466,0.394449,0.0231076,-0.412705,0.326066,0.0844228,0.849345,-0.795237,0,12151,49.314,23.125,11403.9
4490334237,0.634769,2.223,97.8719,0.00424076,0.0417339,0.867324,1.36901,0.37902,0.0212671,-0.435309,0.339459,0.220945,0.809702,-0.770203,0,12151,49.314,23.125,11403.9
4490434596,0.634769,2.223,97.8765,0.00675201,0.0404984,0.86748,1.31072,0.365968,0.0323962,-0.402453,0.356773,0.23177,0.768403,-0.743202,0,12151,49.314,23.125,11403.9
4490534945,0.634769,2.223,97.8778,0.00775809,0.0396265,0.867399,1.24853,0.353419,0.0297065,-0.458414,0.379546,0.278857,0.730803,-0.71789,0,12151,49.314,23.125,11403.9
4490635305,0.634769,2.223,97.8764,0.00815914,0.0410482,0.867585,1.18984,0.344714,0.0258338,-0.409054,0.382355,0.052371,0.695039,-0.693867,0,12151,49.314,23.125,11403.9
4490735626,0.634769,2.223,97.8728,0.0101159,0.0425026,0.867555,1.12886,0.33118,0.0234066,-0.506352,0.379854,-0.091426,0.662388,-0.671588,0,12151,49.314,23.125,11403.9
4490836061,0.634769,2.223,97.8749,0.0119497,0.0410823,0.86732,1.06445,0.318725,0.0279392,-0.473967,0.473214,0.255076,0.630037,-0.649618,0,12151,49.314,23.125,11403.9
4490936406,0.634769,2.223,97.8748,0.0110792,0.0397429,0.867041,1.00325,0.319371,0.0420375,-0.416796,0.480551,0.0338892,0.598257,-0.629017,0,12151,49.314,23.125,11403.9
4491036753,0.634769,2.223,97.8751,0.00712023,0.0373898,0.866832,0.938976,0.314141,0.0407764,-0.418145,0.452098,0.00798821,0.566949,-0.609429,0,12151,49.314,23.125,11403.9
4491137117,0.634769,2.223,97.8789,0.00271223,0.0362022,0.866935,0.885915,0.318018,0.0356209,-0.321256,0.429555,-0.0235309,0.539676,-0.593055,0,12151,49.314,23.125,11403.9
4491237477,0.634769,2.223,97.8862,-0.000341138,0.0349877,0.867106,0.831544,0.316813,0.0364886,-0.322135,0.445439,0.0516528,0.51352,-0.578138,0,12151,49.325,23.559,11620.5
4491337855,0.634769,2.223,97.8816,-0.00198077,0.0339498,0.867136,0.77919,0.311179,0.0420281,-0.39071,0.389418,0.199723,0.489249,-0.566767,0,12151,49.325,23.559,11620.5
4491438210,0.634769,2.223,97.8691,-0.00741837,0.0310826,0.86704,0.730879,0.314707,0.0357647,-0.32362,0.35804,0.0298271,0.463794,-0.554919,0,12151,49.325,23.559,11620.5
4491538542,0.634769,2.223,97.8677,-0.012631,0.0293364,0.867239,0.692132,0.307591,0.0258643,-0.308276,0.242776,0.144926,0.441588,-0.546372,0,12151,49.325,23.559,11620.5
4491638892,0.634769,2.223,97.8625,-0.0149913,0.0289575,0.867526,0.657547,0.305012,0.0362276,-0.255315,0.250712,0.00338327,0.418265,-0.537174,0,12151,49.325,23.559,11620.5
4491739255,0.634769,2.223,97.859,-0.0161739,0.0273975,0.867624,0.629666,0.298545,0.02299,-0.184364,0.156602,0.0633772,0.396046,-0.528496,0,12151,49.325,23.559,11620.5
4491839629,0.634769,2.223,97.8531,-0.0170871,0.0257131,0.867484,0.601049,0.2948,0.0329795,-0.234642,0.169462,0.218201,0.375232,-0.520264,0,12151,49.325,23.559,11620.5
4491940041,0.634769,2.223,97.8582,-0.0187989,0.0270943,0.867484,0.573855,0.291751,0.0312783,-0.194085,0.177793,-0.0226351,0.355068,-0.510436,0,12151,49.325,23.559,11620.5
4492040406,0.634769,2.223,97.8562,-0.0212249,0.0288352,0.867511,0.550117,0.294194,0.0386233,-0.163765,0.207684,0.353749,0.334218,-0.501125,0,12151,49.325,23.559,11620.5
4492140786,0.634769,2.223,97.8626,-0.0251982,0.0309124,0.867713,0.526083,0.281814,0.0486779,-0.281719,0.0904287,0.113008,0.313872,-0.49204,0,12151,49.325,23.559,11620.5
4492241157,0.634769,2.223,97.8716,-0.024255,0.0318675,0.868322,0.511948,0.273677,0.0328446,-0.172044,0.110024,0.0999035,0.293093,-0.484088,0,12151,49.323,23.45,11566.2
4492341527,0.634769,2.223,97.8781,-0.0253425,0.0349381,0.868921,0.49599,0.263688,0.0320092,-0.262131,0.0822476,-0.170769,0.272864,-0.475379,0,12151,49.323,23.45,11566.2
4492441859,0.634769,2.223,97.8855,-0.0236982,0.0368708,0.869076,0.478246,0.252364,0.0423396,-0.181059,0.0858961,0.299212,0.252744,-0.467197,0,12151,49.323,23.45,11566.2
4492542160,0.634769,2.223,97.8937,-0.0193433,0.0368263,0.868697,0.458489,0.243403,0.0498216,-0.26065,0.135998,0.124582,0.235106,-0.458949,0,12151,49.323,23.45,11566.2
4492642517,0.634769,2.223,97.903,-0.0188506,0.037466,0.86806,0.427406,0.232671,0.042622,-0.343167,0.192124,-0.505692,0.217497,-0.45131,0,12151,49.323,23.45,11566.2
4492742884,0.634769,2.223,97.9076,-0.020044,0.0394223,0.868185,0.399499,0.216409,0.0341206,-0.298942,0.181958,0.0278552,0.201446,-0.442511,0,12151,49.323,23.45,11566.2
4492843225,0.634769,2.223,97.9164,-0.0201463,0.0390733,0.868122,0.376575,0.200057,0.0321019,-0.269909,0.121981,-0.188495,0.185794,-0.434934,0,12151,49.323,23.45,11566.2
4492943540,0.634769,2.223,97.9214,-0.0171062,0.0357854,0.867933,0.355226,0.182377,0.0355524,-0.238551,0.0995406,0.0867329,0.170776,-0.427428,0,12151,49.323,23.45,11566.2
4493043869,0.634769,2.223,97.9256,-0.0171497,0.0346811,0.868029,0.328155,0.179191,0.0248672,-0.212417,0.158004,-0.174646,0.157981,-0.421685,0,12151,49.323,23.45,11566.2
4493144193,0.634769,2.223,97.9216,-0.0178005,0.0316048,0.867876,0.304574,0.172992,0.0140222,-0.187447,0.143161,-0.0298033,0.14657,-0.415682,0,12151,49.323,23.45,11566.2
4493244457,0.634769,2.223,97.9174,-0.0203204,0.0280017,0.868178,0.278473,0.165919,0.0125092,-0.184658,0.184894,-0.158919,0.136259,-0.411257,0,12151,49.331,23.073,11382.1
4493344769,0.634769,2.223,97.9146,-0.0231033,0.0279629,0.868782,0.267855,0.164448,0.0152621,-0.11799,0.0904314,0.197982,0.126289,-0.407689,0,12151,49.331,23.073,11382.1
4493445132,0.634769,2.223,97.9081,-0.0275776,0.0323943,0.868902,0.268834,0.168952,0.00651857,0.00752024,0.0729182,0.284777,0.115876,-0.404373,0,12151,49.331,23.073,11382.1
4493545465,0.634769,2.223,97.9046,-0.0317583,0.0389781,0.86914,0.244151,0.152851,0.0156707,-0.30788,0.109732,-0.00578677,0.10546,-0.401016,0,12151,49.331,23.073,11382.1
4493645825,0.634769,2.223,97.9045,-0.0371412,0.0414848,0.869091,0.228755,0.13883,0.0207279,-0.249846,0.00343217,0.0893936,0.0959687,-0.398085,0,12151,49.331,23.073,11382.1
4493746175,0.634769,2.223,97.912,-0.0425028,0.042824,0.869127,0.22455,0.112354,0.0277561,-0.247736,-0.142025,-0.100428,0.0865508,-0.39472,0,12151,49.331,23.073,11382.1
4493846573,0.634769,2.223,97.9204,-0.0422853,0.0425229,0.869225,0.214926,0.0832473,0.0274539,-0.318393,-0.100086,0.0444682,0.0775988,-0.391149,0,12151,49.331,23.073,11382.1
4493946954,0.634769,2.223,97.9252,-0.0436797,0.0404891,0.869673,0.207494,0.0596832,0.0216481,-0.21167,-0.113368,0.0578346,0.0706744,-0.387559,0,12151,49.331,23.073,11382.1
4494047384,0.634769,2.223,97.924,-0.0414524,0.0371056,0.870139,0.194149,0.0331903,0.0176263,-0.264131,-0.0980634,-0.0943003,-4.5,1.2,0,12151,49.331,23.073,11382.1
4494147736,0.634769,2.223,97.9241,-0.0336489,0.0350626,0.870675,0.182001,0.0171552,0.010671,-0.243533,0.00777187,-0.0532286,-4.5,1.2,0,12151,49.331,23.073,11382.1
4494248104,0.634769,2.223,97.9283,0.0040982,0.0350104,0.872085,0.171983,0.00875071,0.00709917,-0.124053,0.129315,-0.0955645,-4.5,1.2,0,12151,49.325,22.977,11333.4
4494348431,0.634769,2.223,97.9332,0.0231531,0.0322544,0.873,0.135755,0.0234965,0.000247233,-0.163161,0.391542,-0.057718,-4.5,1.2,0,12151,49.325,22.977,11333.4
4494448793,0.634769,2.223,97.9325,0.0330682,0.0297919,0.872852,0.0871343,0.0616991,-0.00573953,-0.0471988,0.636195,0.145635,-4.5,1.2,0,12151,49.325,22.977,11333.4
4494549156,0.634769,2.223,97.9321,0.0335587,0.0279149,0.872374,0.0381301,0.0974179,-0.00231989,-0.0624639,0.589831,0.00145089,-4.5,1.2,0,12151,49.325,22.977,11333.4
4494649519,0.634769,2.223,97.9334,0.025794,0.0268185,0.872147,-0.0114107,0.132482,-0.00102665,-0.0501727,0.570858,0.0675866,-4.5,1.2,0,12151,49.325,22.977,11333.4
4494749868,0.634769,2.223,97.9357,0.0140028,0.0329699,0.872146,-0.0543647,0.157634,0.0023838,-0.117945,0.466985,0.0429254,-4.5,1.2,0,12151,49.325,22.977,11333.4
4494850217,0.634769,2.223,97.9431,0.00195004,0.0390617,0.871979,-0.0914384,0.173433,0.00607326,-0.0988359,0.353031,0.0657066,-4.5,1.2,0,12151,49.325,22.977,11333.4
4494950531,0.634769,2.223,97.9508,-0.0078285,0.0425001,0.871457,-0.121154,0.178937,-0.00119557,-0.142056,0.21406,-0.0017476,-4.5,1.2,0,12151,49.325,22.977,11333.4
4495050889,0.634769,2.223,97.9508,-0.0159325,0.0434873,0.87096,-0.149246,0.182818,0.0133072,-0.147109,0.213095,-0.0124062,-4.5,1.2,0,12151,49.325,22.977,11333.4
4495151250,0.634769,2.223,97.9536,-0.0255071,0.044963,0.871739,-0.173731,0.169184,-0.0049666,-0.258769,0.0512135,-0.240357,-4.5,1.2,0,12151,49.325,22.977,11333.4
4495251620,0.634769,2.223,97.9519,0.00745235,0.15214,0.877232,-0.187247,0.160352,0.0250944,-0.189716,0.0448947,0.600521,-4.5,1.2,0,12151,49.325,22.977,11333.4
4495351982,0.634769,2.223,97.9497,0.045862,0.285212,0.883904,-0.3301,0.0613787,0.00158001,-1.92541,0.47915,-0.202473,-4.5,1.2,0,12151,49.33,23.096,11393.3
4495452377,0.634769,2.223,97.9507,0.0758385,0.365197,0.893344,-0.578206,-0.11739,-0.05187,-2.85191,0.725433,1.0284,-4.5,1.2,0,12151,49.33,23.096,11393.3
4495552734,0.634769,2.223,97.9515,0.0957973,0.407189,0.900073,-0.901817,-0.337013,-0.0608145,-3.46792,1.01238,1.41523,-4.5,1.2,0,12151,49.33,23.096,11393.3
4495653103,0.634769,2.223,97.952,0.103931,0.417896,0.902277,-1.24185,-0.568816,-0.0751272,-3.55692,0.996022,1.66159,-4.5,1.2,0,12151,49.33,23.096,11393.3
4495753466,0.634769,2.223,97.95,0.101226,0.415598,0.900811,-1.65941,-0.852371,-0.0493795,-3.50412,1.00654,2.00829,-4.5,1.2,0,12151,49.33,23.096,11393.3
4495853822,0.634769,2.223,97.9632,0.0857917,0.406559,0.896692,-1.99577,-1.09185,-0.0109298,-3.42325,0.89041,1.95429,-4.5,1.2,0,12151,49.33,23.096,11393.3
4495954170,0.634769,2.223,97.9856,0.0662564,0.398583,0.891753,-2.2933,-1.34023,0.0149533,-3.45328,0.638771,1.31192,-4.5,1.2,0,12151,49.33,23.096,11393.3
4496054534,0.634769,2.223,97.9987,0.0516317,0.390058,0.88764,-2.55893,-1.57606,0.0151688,-3.18576,0.460818,1.18556,2.7,1.2,0,12151,49.33,23.096,11393.3
4496154900,0.634769,2.223,98.0105,0.0349118,0.333159,0.881645,-2.82319,-1.83137,0.0276981,-3.29597,0.351028,1.31306,2.7,1.2,0,12151,49.33,23.096,11393.3
4496255255,0.634769,2.223,98.037,0.00564343,0.0411869,0.876853,-2.99669,-2.01436,0.0888147,-1.79147,0.0931191,0.941323,2.7,1.2,0,12151,49.33,23.096,11393.3
4496356200,0.634769,2.223,98.0676,-0.0119193,-0.277566,0.874794,-2.87206,-1.88842,0.175586,2.1822,-0.157371,0.869316,2.7,1.2,0,12063,49.307,23.528,11601
4496456613,0.634768,2.223,98.0781,-0.0126163,-0.438571,0.867237,-2.5774,-1.58756,0.0762854,4.63964,-0.25782,0.0678973,2.7,1.2,0,12063,49.307,23.528,11601
4496556972,0.634768,2.223,98.0706,-0.00912095,-0.492743,0.858673,-2.23696,-1.22306,-0.0346579,4.69495,-0.160706,2.24644,2.7,1.2,0,12063,49.307,23.528,11601
4496657323,0.634768,2.223,98.035,-0.0209684,-0.496138,0.851607,-1.85484,-0.823339,-0.0870342,5.02972,-0.186229,2.1502,2.7,1.2,0,12063,49.307,23.528,11601
4496757671,0.634768,2.223,97.9839,-0.0448521,-0.474185,0.847344,-1.46466,-0.469809,-0.186028,4.95497,-0.497933,1.88831,2.7,1.2,0,12063,49.307,23.528,11601
4496858006,0.634768,2.223,97.934,-0.0486595,-0.444664,0.844249,-1.0309,-0.13647,-0.211833,4.79186,-0.85903,2.3583,2.7,1.2,0,12063,49.307,23.528,11601
4496958340,0.634768,2.223,97.8806,-0.024878,-0.42038,0.841512,-0.604667,0.200543,-0.185502,4.2777,-0.785097,2.99061,2.7,1.2,0,12063,49.307,23.528,11601
4497058693,0.634768,2.223,97.8487,0.0249321,-0.406593,0.838094,-0.22784,0.551979,-0.14896,4.19765,-0.365721,2.48291,2.7,1.2,0,12063,49.307,23.528,11601
