timestamp,lat,log,alt,roll,pitch,yaw,vel_x,vel_y,vel_z,acc_x,acc_y,acc_z,act_vx,act_vy,act_yr,capacity,vol,cur,power
245614905,0.634769,2.223,94.8283,-0.0117392,0.0239807,0.881322,-0.0794519,-0.0468631,-0.00111097,-0.0767281,0.0471662,0.109316,-0.6,-1.3,0,11039,48.112,25.148,12099.2
245715322,0.634769,2.223,94.8202,-0.0103512,0.0229079,0.881161,-0.081479,-0.0520485,0.0051042,-0.131516,0.032323,0.317802,-0.6,-1.3,0,11039,48.112,25.148,12099.2
245815669,0.634769,2.223,94.8194,-0.0179197,0.0255829,0.881605,-0.0839877,-0.0544632,0.00261203,-0.134289,0.0396507,0.0839616,-0.6,-1.3,0,11039,48.112,25.148,12099.2
245916057,0.634769,2.223,94.8201,-0.105337,0.0594268,0.877685,-0.0730758,-0.0718957,0.0362487,-0.234299,-0.355224,0.0311892,-0.6,-1.3,0,11039,48.112,25.148,12099.2
246016453,0.634769,2.223,94.8175,-0.190198,0.0900629,0.872129,-0.00812957,-0.187857,0.0172815,-0.571886,-1.3386,-0.0828787,-0.6,-1.3,0,11039,48.112,25.148,12099.2
246116796,0.634769,2.223,94.8123,-0.234784,0.107787,0.868248,0.104871,-0.381616,-0.0031435,-0.839155,-2.00081,0.469991,-0.6,-1.3,0,11039,48.112,25.148,12099.2
246217120,0.634769,2.223,94.8142,-0.237001,0.108841,0.868425,0.230503,-0.597455,-0.00556649,-0.883879,-2.12894,0.781474,-0.6,-1.3,0,11039,48.112,25.148,12099.2
246317433,0.634769,2.223,94.8262,-0.211764,0.100474,0.870972,0.346817,-0.806768,0.0184454,-0.866853,-2.01077,0.726408,-0.6,-1.3,0,11039,48.112,25.148,12099.2
246417786,0.634769,2.223,94.8263,-0.173065,0.0856153,0.874256,0.432514,-0.976448,0.0124167,-0.734843,-1.53514,0.48764,-0.6,-1.3,0,11039,48.112,25.148,12099.2
246518153,0.634769,2.223,94.8187,-0.136659,0.0720094,0.876563,0.513663,-1.09636,0.0263742,-0.408477,-1.19888,0.436954,-0.6,-1.3,0,11039,48.112,25.148,12099.2
246618505,0.634769,2.223,94.813,-0.110579,0.064213,0.877926,0.562433,-1.18717,0.0162278,-0.451352,-0.81374,0.0313709,-0.6,-1.3,0,11039,48.112,25.148,12099.2
246718830,0.634769,2.223,94.8159,-0.0907011,0.0568387,0.878887,0.603813,-1.25604,0.0117644,-0.332775,-0.665,0.140131,-0.6,-1.3,0,11039,48.113,25.308,12176.4
246819165,0.634769,2.223,94.8159,-0.0747213,0.0501948,0.879759,0.639283,-1.3149,0.0105772,-0.275585,-0.474964,0.318859,-0.6,-1.3,0,11039,48.113,25.308,12176.4
246919499,0.634769,2.223,94.81,-0.0632305,0.0443941,0.880275,0.662852,-1.35856,0.0122906,-0.266833,-0.416848,0.0739214,-0.6,-1.3,0,11039,48.113,25.308,12176.4
247019795,0.634769,2.223,94.8018,-0.055377,0.0386055,0.880694,0.685732,-1.39705,0.00833474,-0.135433,-0.251694,0.34273,-0.6,-1.3,0,11039,48.113,25.308,12176.4
247120951,0.634769,2.223,94.7933,-0.0500368,0.0346283,0.881022,0.699644,-1.41923,0.00544734,-0.158,-0.214632,-0.124704,-0.6,-1.3,0,11039,48.113,25.308,12176.4
247223157,0.634769,2.223,94.7895,-0.0475944,0.0328571,0.880991,0.710018,-1.4336,0.011678,-0.11281,-0.139542,0.0183938,-0.6,-1.3,0,11039,48.113,25.308,12176.4
247330334,0.634769,2.223,94.7849,-0.0453058,0.0323775,0.881233,0.723476,-1.4432,0.0230676,-0.0686193,-0.185641,0.135223,-0.6,-1.3,0,11039,48.113,25.308,12176.4
247430732,0.634769,2.223,94.7816,-0.0414834,0.0332971,0.881326,0.732304,-1.44912,0.0197219,-0.0800836,-0.083498,0.223997,-0.6,-1.3,0,11039,48.113,25.308,12176.4
247531066,0.634769,2.223,94.778,-0.0397439,0.0331472,0.881225,0.736816,-1.45006,0.0277745,-0.0769942,-0.0478903,0.332506,-0.6,-1.3,0,11039,48.113,25.308,12176.4
247631442,0.634769,2.223,94.7802,-0.0392292,0.0326159,0.881207,0.742274,-1.44909,0.0327728,-0.0312768,-0.0372221,0.00245006,-4.1,-0.4,0,11039,48.113,25.308,12176.4
247731807,0.634769,2.223,94.7876,-0.0310571,0.0496668,0.883227,0.745843,-1.44154,0.0277955,-0.00242389,-0.0204923,0.0304693,-4.1,-0.4,0,11039,48.095,25.847,12431.1
247832212,0.634769,2.223,94.7951,0.0229199,0.185809,0.887169,0.725212,-1.43636,0.0754808,-0.554366,0.292426,-0.0757513,-4.1,-0.4,0,11039,48.095,25.847,12431.1
247932543,0.634769,2.223,94.8014,0.0640696,0.307948,0.892907,0.554904,-1.53939,0.0176097,-2.06127,0.671315,0.333972,-4.1,-0.4,0,11039,48.095,25.847,12431.1
248032871,0.634769,2.223,94.8016,0.0894573,0.38561,0.898049,0.28032,-1.70874,-0.0154722,-2.9956,0.979509,1.19741,-4.1,-0.4,0,11039,48.095,25.847,12431.1
248134203,0.634769,2.223,94.8037,0.0978806,0.422143,0.899331,-0.146996,-1.96108,-0.018086,-3.68099,1.23449,1.80883,-4.1,-0.4,0,11039,48.095,25.847,12431.1
248238085,0.634769,2.223,94.8087,0.0897274,0.433869,0.898023,-0.514749,-2.20119,0.00667245,-3.78457,1.16503,1.94019,-4.1,-0.4,0,11039,48.095,25.847,12431.1
248338484,0.634769,2.223,94.8181,0.0747452,0.425287,0.894963,-0.870018,-2.44828,0.0189466,-3.82767,1.01303,1.69785,-4.1,-0.4,0,11039,48.095,25.847,12431.1
248438847,0.634769,2.223,94.8281,0.053662,0.380682,0.89047,-1.1928,-2.69259,0.0301203,-3.44602,0.799493,1.64299,-4.1,-0.4,0,11039,48.095,25.847,12431.1
248539201,0.634769,2.223,94.831,0.0336925,0.325626,0.886807,-1.45795,-2.89013,0.0412224,-3.08154,0.708908,0.534729,-4.1,-0.4,0,11039,48.095,25.847,12431.1
248639511,0.634769,2.223,94.8303,0.0170735,0.273737,0.884747,-1.66779,-3.04734,0.0297818,-2.27703,0.560183,1.04094,-4.1,-0.4,0,11039,48.095,25.847,12431.1
248739850,0.634769,2.223,94.8359,0.00156429,0.226055,0.882605,-1.82727,-3.18513,0.0439033,-1.89004,0.291222,0.457847,-4.1,-0.4,0,11039,48.068,25.847,12424.1
248840274,0.634769,2.223,94.8442,-0.00842345,0.187685,0.882383,-1.94275,-3.29036,0.0381983,-1.42887,0.202064,-0.0613118,-4.1,-0.4,0,11039,48.068,25.847,12424.1
248940664,0.634769,2.223,94.8524,-0.0133638,0.159896,0.88228,-2.02679,-3.3753,0.0313425,-1.03729,0.047557,0.0581589,-4.1,-0.4,0,11039,48.068,25.847,12424.1
249041026,0.634769,2.223,94.859,-0.0118349,0.137339,0.882099,-2.07625,-3.44267,0.0325852,-0.71705,-0.0621133,0.28062,-4.1,-0.4,0,11039,48.068,25.847,12424.1
249141328,0.634769,2.223,94.8661,-0.00974276,0.124681,0.882097,-2.11323,-3.49851,0.0385999,-0.705954,0.0112901,-0.0997883,-4.1,-0.4,0,11039,48.068,25.847,12424.1
249241625,0.634769,2.223,94.8702,-0.0115864,0.110538,0.881888,-2.15662,-3.52897,0.00300308,-0.45188,0.13635,-0.148342,-4.1,-0.4,0,11039,48.068,25.847,12424.1
249342001,0.634769,2.223,94.8672,-0.0100246,0.101464,0.88224,-2.18397,-3.56565,-0.00107006,-0.430198,0.0819737,0.0621272,-4.1,-0.4,0,11039,48.068,25.847,12424.1
249442373,0.634769,2.223,94.8598,-0.00707557,0.0945942,0.881932,-2.19437,-3.59257,-0.0199435,-0.319817,-0.0209384,0.0526831,-4.1,-0.4,0,11039,48.068,25.847,12424.1
249542752,0.634769,2.223,94.8516,-0.00621293,0.0904944,0.882312,-2.1845,-3.61455,-0.018029,-0.17015,-0.0952376,0.0745437,-4.1,-0.4,0,11039,48.068,25.847,12424.1
249643161,0.634769,2.223,94.8428,-0.00442737,0.0896083,0.882362,-2.20992,-3.62751,-0.0274155,-0.246601,0.15649,0.322064,3.8,-2.6,0,11039,48.068,25.847,12424.1
249743469,0.634769,2.223,94.8336,-0.00785035,0.0710809,0.880294,-2.21941,-3.64418,-0.0133729,-0.227579,0.0674063,0.469667,3.8,-2.6,0,11039,48.058,26.023,12506.1
249845295,0.634769,2.223,94.837,-0.0620392,-0.138207,0.883083,-2.20186,-3.63009,0.0341039,0.468238,-0.0729645,0.836364,3.8,-2.6,0,11039,48.058,26.023,12506.1
249947507,0.634769,2.223,94.8441,-0.107212,-0.31054,0.898319,-1.93612,-3.43349,0.063612,3.1292,-0.685059,0.71621,3.8,-2.6,0,11039,48.058,26.023,12506.1
250047797,0.634768,2.223,94.8474,-0.138251,-0.409127,0.911162,-1.574,-3.15739,0.00597308,4.16472,-0.928773,1.47366,3.8,-2.6,0,11039,48.058,26.023,12506.1
250148176,0.634768,2.223,94.8372,-0.155096,-0.459072,0.918618,-1.12532,-2.82617,-0.0258492,4.78316,-1.14346,2.17165,3.8,-2.6,0,11039,48.058,26.023,12506.1
250248539,0.634768,2.223,94.8109,-0.161031,-0.483661,0.92208,-0.642731,-2.45779,-0.0882341,5.49929,-1.20417,2.20148,3.8,-2.6,0,11039,48.058,26.023,12506.1
250348914,0.634768,2.223,94.7877,-0.154978,-0.487509,0.92226,-0.146998,-2.07451,-0.115081,5.09912,-1.03413,2.986,3.8,-2.6,0,11039,48.058,26.023,12506.1
250449279,0.634768,2.223,94.7801,-0.146254,-0.470999,0.918666,0.340227,-1.68541,-0.105426,4.92967,-1.00353,3.48302,3.8,-2.6,0,11039,48.058,26.023,12506.1
250549634,0.634769,2.223,94.7805,-0.143893,-0.447131,0.914744,0.833538,-1.29757,-0.0404029,4.96877,-1.13255,2.78052,3.8,-2.6,0,11039,48.058,26.023,12506.1
250649964,0.634769,2.223,94.7862,-0.141345,-0.425044,0.912023,1.29926,-0.941817,0.006446,4.62667,-0.963524,2.69968,3.8,-2.6,0,11039,48.058,26.023,12506.1
250750290,0.634769,2.223,94.8072,-0.143238,-0.403395,0.910063,1.71041,-0.621655,0.0306119,4.23539,-0.968554,2.18875,3.8,-2.6,0,11039,48.058,26.559,12763.7
250851188,0.634769,2.223,94.8335,-0.147478,-0.385601,0.909214,2.11456,-0.331507,0.0548934,4.09726,-1.09374,1.70203,3.8,-2.6,0,11039,48.058,26.559,12763.7
250951583,0.634769,2.223,94.8598,-0.151426,-0.368969,0.908088,2.47221,-0.0706969,0.0536553,3.66626,-0.98846,1.57095,3.8,-2.6,0,11039,48.058,26.559,12763.7
251051972,0.634769,2.223,94.8855,-0.151506,-0.343331,0.90579,2.82985,0.178777,0.0540063,3.62786,-1.01473,1.24489,3.8,-2.6,0,11039,48.058,26.559,12763.7
251156777,0.634769,2.223,94.9046,-0.138441,-0.290409,0.899154,3.2176,0.424904,0.053304,3.0635,-1.04738,0.791658,3.8,-2.6,0,11039,48.058,26.559,12763.7
251257152,0.634769,2.223,94.9176,-0.12194,-0.236935,0.8929,3.47588,0.589721,0.047264,2.48389,-0.862494,0.611244,3.8,-2.6,0,11039,48.058,26.559,12763.7
251357427,0.634769,2.223,94.9352,-0.108939,-0.186418,0.888716,3.67442,0.712675,0.0358112,1.93632,-0.780689,0.130096,3.8,-2.6,0,11039,48.058,26.559,12763.7
251457721,0.634769,2.223,94.9539,-0.0977292,-0.148991,0.885913,3.82396,0.800307,0.0251052,1.4284,-0.642868,-0.155093,3.8,-2.6,0,11039,48.058,26.559,12763.7
251558063,0.634769,2.223,94.9682,-0.0879651,-0.121984,0.884294,3.94579,0.868258,0.00802609,1.17544,-0.541249,-0.218227,3.8,-2.6,0,11039,48.058,26.559,12763.7
251658470,0.634769,2.223,94.978,-0.0790417,-0.101692,0.883233,4.02723,0.927128,-0.00864814,0.879418,-0.354374,-0.0212912,0,-1.9,0,11039,48.058,26.559,12763.7
251758839,0.634769,2.223,94.9876,-0.0627011,-0.0572151,0.882922,4.10863,0.976942,-0.000716791,0.8792,-0.363919,0.331996,0,-1.9,0,11039,48.058,26.559,12763.7
251859178,0.634769,2.223,95.0002,-0.0078042,0.183431,0.883635,4.12072,0.976591,0.0567389,-0.471859,-0.00864783,0.208701,0,-1.9,0,11039,48.058,26.559,12763.7
251959491,0.634769,2.223,95.0145,0.026856,0.363027,0.887056,3.88084,0.782814,-0.00924046,-3.23022,0.55435,0.00781286,0,-1.9,0,11039,48.058,26.559,12763.7
252059824,0.634769,2.223,95.015,0.0383802,0.47141,0.890147,3.54307,0.507379,-0.082967,-4.15654,0.749784,1.51041,0,-1.9,0,11039,48.058,26.559,12763.7
252160209,0.634769,2.223,95.0269,0.0356866,0.50416,0.888808,3.12146,0.139798,-0.115775,-4.8167,0.722742,2.42902,0,-1.9,0,11039,48.058,26.559,12763.7
252260542,0.634769,2.223,95.0511,0.0264204,0.453695,0.883565,2.68195,-0.234043,-0.0967583,-4.85708,0.839291,2.17514,0,-1.9,0,11039,48.018,26.353,12654.2
252360898,0.634769,2.223,95.0572,0.0133938,0.360023,0.878662,2.31948,-0.540396,-0.0895631,-4.04826,0.674358,1.54494,0,-1.9,0,11039,48.018,26.353,12654.2
252461226,0.63477,2.223,95.0376,0.000756841,0.262642,0.877545,2.04647,-0.770014,-0.0665817,-2.95522,0.496935,0.93612,0,-1.9,0,11039,48.018,26.353,12654.2
252561596,0.63477,2.223,95.0222,-0.0121532,0.183142,0.878205,1.84546,-0.932837,-0.0609593,-2.05176,0.398155,0.669622,0,-1.9,0,11039,48.018,26.353,12654.2
252661945,0.63477,2.223,95.0127,-0.025837,0.124691,0.879083,1.69493,-1.05085,-0.0527986,-1.48123,0.26602,-0.540408,0,-1.9,0,11039,48.018,26.353,12654.2
252762335,0.63477,2.223,94.9893,-0.0402692,0.0811008,0.88058,1.60583,-1.13937,-0.0902394,-0.896042,0.0613406,0.213117,0,-1.9,0,11039,48.018,26.353,12654.2
252862683,0.63477,2.223,94.9502,-0.0446962,0.0557186,0.881456,1.56324,-1.20537,-0.0842685,-0.436353,-0.136059,0.341442,0,-1.9,0,11039,48.018,26.353,12654.2
252963099,0.63477,2.223,94.9192,-0.0448241,0.0364966,0.881895,1.53004,-1.25098,-0.0945689,-0.227808,-0.0317115,0.36062,0,-1.9,0,11039,48.018,26.353,12654.2
253063447,0.63477,2.223,94.8982,-0.0442964,0.0257121,0.882052,1.50701,-1.27696,-0.0882428,-0.141097,0.0502629,0.198356,0,-1.9,0,11039,48.018,26.353,12654.2
253163788,0.63477,2.223,94.8773,-0.044567,0.0198424,0.882103,1.49547,-1.29772,-0.068163,-0.104539,0.0669533,0.349007,0,-1.9,0,11039,48.018,26.353,12654.2
253264106,0.63477,2.223,94.8634,-0.0445601,0.0155241,0.881847,1.49834,-1.32116,-0.0612584,-0.0628921,-0.10235,0.266529,0,-1.9,0,11039,47.916,30.943,14826.6
253364455,0.63477,2.223,94.8568,-0.0434188,0.0153238,0.881734,1.50948,-1.31587,-0.0354686,0.0727853,-0.0460388,0.221969,0,-1.9,0,11039,47.916,30.943,14826.6
253464848,0.63477,2.223,94.8565,-0.0420779,0.017286,0.881605,1.52576,-1.31374,-0.0287735,0.0999443,0.0140147,0.223071,0,-1.9,0,11039,47.916,30.943,14826.6
253565202,0.63477,2.223,94.8618,-0.040623,0.0198278,0.881258,1.54914,-1.31013,-0.0147619,0.104363,-0.0340623,0.368073,0,-1.9,0,11039,47.916,30.943,14826.6
253665589,0.63477,2.223,94.8737,-0.0396046,0.0237219,0.880948,1.56591,-1.3086,-0.00187435,-0.0495541,-0.0901694,-0.0449665,-2.4,1.8,0,11039,47.916,30.943,14826.6
253765966,0.63477,2.223,94.8884,-0.0247199,0.0352621,0.880746,1.57584,-1.31024,-0.000987303,-0.0333827,-0.0211451,0.441862,-2.4,1.8,0,11039,47.916,30.943,14826.6
253866344,0.63477,2.223,94.8956,0.121471,0.123182,0.89164,1.52872,-1.2966,0.0333751,-0.678278,0.882904,-0.52282,-2.4,1.8,0,11039,47.916,30.943,14826.6
253966683,0.63477,2.223,94.906,0.256552,0.189797,0.907247,1.28494,-1.25621,-0.0122427,-1.42502,2.29432,0.390106,-2.4,1.8,0,11039,47.916,30.943,14826.6
254067063,0.63477,2.223,94.917,0.33514,0.229161,0.919382,0.921431,-1.1912,-0.0428636,-1.98634,3.28365,0.973151,-2.4,1.8,0,11039,47.916,30.943,14826.6
254167431,0.63477,2.223,94.9202,0.372293,0.248668,0.924786,0.479377,-1.11046,-0.0510251,-2.11319,3.60674,2.08619,-2.4,1.8,0,11039,47.916,30.943,14826.6
254267719,0.63477,2.223,94.9226,0.376296,0.254787,0.925628,0.0146426,-1.02511,-0.0479864,-2.12629,3.72601,2.05673,-2.4,1.8,0,11039,48.018,28.823,13840.2
254368082,0.63477,2.223,94.9117,0.357963,0.257401,0.924254,-0.449033,-0.944574,-0.036362,-2.16735,3.60446,2.09621,-2.4,1.8,0,11039,48.018,28.823,13840.2
254468432,0.63477,2.223,94.8975,0.336517,0.260526,0.923475,-0.896062,-0.873342,-0.0181516,-2.14277,3.52179,1.83974,-2.4,1.8,0,11039,48.018,28.823,13840.2
254568786,0.63477,2.223,94.8866,0.29568,0.248866,0.91759,-1.31993,-0.831612,-0.0218832,-2.24991,3.2771,1.39633,-2.4,1.8,0,11039,48.018,28.823,13840.2
254669097,0.63477,2.223,94.8812,0.242654,0.222739,0.909236,-1.67684,-0.811702,-0.00159146,-1.87002,2.54623,1.53119,-2.4,1.8,0,11039,48.018,28.823,13840.2
254769461,0.63477,2.223,94.8762,0.192684,0.193487,0.902362,-1.97247,-0.798514,0.0274414,-1.60806,2.07986,0.917956,-2.4,1.8,0,11039,48.018,28.823,13840.2
254869832,0.63477,2.223,94.8707,0.150998,0.166321,0.897504,-2.18454,-0.791976,0.0146744,-1.27616,1.59207,0.410267,-2.4,1.8,0,11039,48.018,28.823,13840.2
254970211,0.63477,2.223,94.8706,0.117073,0.143533,0.894018,-2.3559,-0.785832,0.00223525,-0.961506,1.21816,0.177966,-2.4,1.8,0,11039,48.018,28.823,13840.2
255070560,0.63477,2.223,94.8765,0.0907621,0.126705,0.89163,-2.48362,-0.78413,-0.00412109,-0.716309,0.936252,-0.413136,-2.4,1.8,0,11039,48.018,28.823,13840.2
255170889,0.63477,2.223,94.8756,0.0735349,0.113448,0.890199,-2.5815,-0.787832,-0.00231764,-0.650629,0.673387,0.382823,-2.4,1.8,0,11039,48.018,28.823,13840.2
255271252,0.63477,2.223,94.8667,0.0622714,0.101302,0.888963,-2.67066,-0.804038,-0.0142553,-0.642466,0.578771,0.321806,-2.4,1.8,0,11039,48.002,26.15,12552.5
255371563,0.634769,2.223,94.8667,0.0520604,0.0913434,0.887767,-2.73464,-0.815371,0.00325852,-0.511497,0.456343,0.014454,-2.4,1.8,0,11039,48.002,26.15,12552.5
255471915,0.634769,2.223,94.8667,0.0461603,0.0827423,0.886698,-2.7835,-0.825028,-0.00855135,-0.385184,0.405523,-0.042424,-2.4,1.8,0,11039,48.002,26.15,12552.5
255572286,0.634769,2.223,94.863,0.0404073,0.0753825,0.886169,-2.81829,-0.824993,-0.0301535,-0.150181,0.313772,0.344706,-2.4,1.8,0,11039,48.002,26.15,12552.5
255672676,0.634769,2.223,94.8582,0.0349713,0.0720734,0.885804,-2.83461,-0.827525,0.00345417,-0.144904,0.161714,0.233012,2.8,1.1,0,11039,48.002,26.15,12552.5
255773041,0.634769,2.223,94.8599,0.0224375,0.0307054,0.882217,-2.86151,-0.840513,0.00255766,-0.378755,0.240823,0.222534,2.8,1.1,0,11039,48.002,26.15,12552.5
255874368,0.634769,2.223,94.8662,-0.0199761,-0.181432,0.883642,-2.82575,-0.813124,0.0618863,0.850151,-0.0698722,0.613551,2.8,1.1,0,11039,48.002,26.15,12552.5
255974693,0.634769,2.223,94.8879,-0.0447271,-0.345073,0.887756,-2.5846,-0.613602,0.0400782,3.1282,-0.462474,0.0543357,2.8,1.1,0,11039,48.002,26.15,12552.5
256075093,0.634769,2.223,94.9043,-0.0581392,-0.438304,0.889261,-2.25512,-0.350049,-0.0454713,4.00705,-0.653093,1.39525,2.8,1.1,0,11039,48.002,26.15,12552.5
256175408,0.634769,2.223,94.8974,-0.0692733,-0.473074,0.887542,-1.8302,0.00482976,-0.0689853,4.80399,-0.759769,2.24318,2.8,1.1,0,11039,48.002,26.15,12552.5
256275686,0.634769,2.223,94.8701,-0.0700151,-0.465256,0.884141,-1.39102,0.358291,-0.0850204,4.70954,-0.858189,2.46673,2.8,1.1,0,11039,48.002,26.15,12552.5
256376062,0.634769,2.223,94.8413,-0.0568719,-0.449011,0.88113,-0.957265,0.713229,-0.0888902,4.73391,-0.713298,2.0839,2.8,1.1,0,10994,47.999,26.962,12941.5
256476419,0.634769,2.223,94.8243,-0.0299904,-0.436306,0.87722,-0.553685,1.05635,-0.0706122,4.1989,-0.702501,2.96221,2.8,1.1,0,10994,47.999,26.962,12941.5
256576768,0.634769,2.223,94.8179,0.00171339,-0.38783,0.872252,-0.118238,1.46312,-0.0387357,3.9994,-0.257554,1.86113,2.8,1.1,0,10994,47.999,26.962,12941.5
256677147,0.634769,2.223,94.8191,0.0249351,-0.3187,0.870264,0.109577,1.71572,-0.0215234,3.56769,-0.0315731,1.57645,2.8,1.1,0,10994,47.999,26.962,12941.5
256777524,0.634769,2.223,94.8309,0.0410286,-0.247111,0.871808,0.359011,2.0243,0.0161826,2.73017,0.21207,0.785048,2.8,1.1,0,10994,47.999,26.962,12941.5
256877871,0.634769,2.223,94.8499,0.054291,-0.182348,0.874558,0.497428,2.22807,0.0247859,2.03019,0.391422,0.126638,2.8,1.1,0,10994,47.999,26.962,12941.5
256978228,0.634769,2.223,94.8717,0.0613623,-0.134242,0.877095,0.576836,2.39391,0.0268244,1.42351,0.54137,0.280833,2.8,1.1,0,10994,47.999,26.962,12941.5
257078594,0.634769,2.223,94.9008,0.0587009,-0.0993393,0.879426,0.624188,2.52686,0.0168452,1.03063,0.561989,-0.31088,2.8,1.1,0,10994,47.999,26.962,12941.5
257178910,0.634769,2.223,94.9237,0.0535797,-0.0769399,0.880617,0.644382,2.62971,0.0179102,0.64786,0.517532,0.0126602,2.8,1.1,0,10994,47.999,26.962,12941.5
257280367,0.634769,2.223,94.9413,0.0458816,-0.0607168,0.881129,0.65608,2.71482,0.0126495,0.544545,0.452045,-0.27726,2.8,1.1,0,10994,47.999,26.962,12941.5
257385511,0.634769,2.223,94.9607,0.0363583,-0.0494277,0.881528,0.659723,2.77214,-0.0040727,0.303624,0.349807,-0.197965,2.8,1.1,0,10994,48.017,25.443,12217
257485828,0.634769,2.223,94.9786,0.0279989,-0.0427786,0.881561,0.673687,2.81061,-0.00345505,0.330581,0.132727,-0.221794,2.8,1.1,0,10994,48.017,25.443,12217
257586110,0.634769,2.223,94.9884,0.0216087,-0.0395472,0.882239,0.674658,2.84001,-0.00446523,0.165787,0.0637849,-0.259065,2.8,1.1,0,10994,48.017,25.443,12217
257686513,0.634769,2.223,94.9861,0.0185297,-0.0394376,0.881777,0.678496,2.86669,-0.0407253,0.198246,0.071012,-0.281123,4.9,0.6,0,10994,48.017,25.443,12217
257786871,0.634769,2.223,94.9843,0.00679215,-0.0616771,0.880145,0.666745,2.87746,-0.0365477,-0.0373288,0.100486,0.336716,4.9,0.6,0,10994,48.017,25.443,12217
257887219,0.634769,2.223,94.9816,-0.033268,-0.183723,0.885089,0.712681,2.91348,-0.0395271,0.917621,-0.303084,-0.360154,4.9,0.6,0,10994,48.017,25.443,12217
257987567,0.634769,2.223,94.975,-0.0644673,-0.28624,0.891067,0.873552,3.02891,-0.0842664,1.9845,-0.548219,0.53114,4.9,0.6,0,10994,48.017,25.443,12217
258088088,0.634769,2.223,94.9614,-0.0798455,-0.338773,0.894353,1.11115,3.19854,-0.11236,2.86703,-0.753502,1.07379,4.9,0.6,0,10994,48.017,25.443,12217
258188503,0.634769,2.223,94.9366,-0.0748225,-0.332216,0.891943,1.40507,3.40555,-0.105023,3.09879,-0.896806,1.45738,4.9,0.6,0,10994,48.017,25.443,12217
258288899,0.634769,2.223,94.9079,-0.0583339,-0.29709,0.887898,1.67014,3.59912,-0.0855542,2.86169,-0.735727,1.36037,4.9,0.6,0,10994,48.017,25.443,12217
258389991,0.634769,2.223,94.8822,-0.0402073,-0.251053,0.884614,1.87448,3.76594,-0.0617198,2.35919,-0.524802,0.578679,4.9,0.6,0,10994,48.076,26.932,12947.8
258494130,0.634769,2.223,94.8549,-0.0251436,-0.210705,0.883164,2.02291,3.88905,-0.0526981,1.74857,-0.314577,0.776838,4.9,0.6,0,10994,48.076,26.932,12947.8
258594485,0.63477,2.223,94.8651,-0.0156147,-0.175635,0.882496,2.16149,4.02648,-0.0326049,1.3821,-0.106852,0.493904,4.9,0.6,0,10994,48.076,26.932,12947.8
258694834,0.63477,2.223,94.8773,-0.0106101,-0.147505,0.882394,2.25001,4.11081,-0.00310233,1.03986,-0.120904,0.482413,4.9,0.6,0,10994,48.076,26.932,12947.8
258795228,0.63477,2.223,94.8882,-0.00672953,-0.127473,0.882882,2.31854,4.17347,0.0103815,0.874579,-0.1239,-0.477959,4.9,0.6,0,10994,48.076,26.932,12947.8
258895577,0.63477,2.223,94.902,-0.00521308,-0.111571,0.883571,2.35509,4.21625,0.00389835,0.499733,-0.0169575,-0.0173839,4.9,0.6,0,10994,48.076,26.932,12947.8
258995881,0.63477,2.223,94.9256,-0.00772049,-0.104338,0.883585,2.3952,4.25562,0.010219,0.468962,-0.10655,-0.126744,4.9,0.6,0,10994,48.076,26.932,12947.8
259096266,0.63477,2.223,94.9421,-0.00411882,-0.0986708,0.883385,2.43652,4.29513,0.00801945,0.535909,-0.0574136,-0.294688,4.9,0.6,0,10994,48.076,26.932,12947.8
259196614,0.63477,2.223,94.9482,-0.00142462,-0.0900841,0.882803,2.45515,4.33465,-0.00556234,0.376833,0.12578,-0.111142,4.9,0.6,0,10994,48.076,26.932,12947.8
259296955,0.63477,2.223,94.9525,-0.00572144,-0.0828962,0.882315,2.46801,4.36411,-0.00384009,0.283275,0.0535794,-0.0477866,4.9,0.6,0,10994,48.076,26.932,12947.8
259397323,0.63477,2.223,94.9601,-0.00941227,-0.0791127,0.881952,2.48292,4.38759,-0.012087,0.206145,-0.00108241,-0.133246,4.9,0.6,0,10994,47.979,25.684,12322.9
259497664,0.63477,2.223,94.9613,-0.0109832,-0.0761677,0.881826,2.49434,4.40396,-0.0112152,0.202533,0.0398584,-0.0700235,4.9,0.6,0,10994,47.979,25.684,12322.9
259597994,0.63477,2.223,94.9617,-0.0135324,-0.0731727,0.881637,2.50613,4.41491,-0.0191722,0.138706,-0.0508449,-0.281445,4.9,0.6,0,10994,47.979,25.684,12322.9
259698431,0.63477,2.223,94.9589,-0.0149347,-0.0698697,0.881777,2.51821,4.42479,-0.0293453,0.15431,-0.0425152,-0.0964529,1.7,-0.7,0,10994,47.979,25.684,12322.9
259798768,0.63477,2.223,94.9583,-0.0284051,-0.0408736,0.879573,2.53835,4.43645,-0.0259119,0.304299,-0.032917,0.433288,1.7,-0.7,0,10994,47.979,25.684,12322.9
259899115,0.63477,2.223,94.9597,-0.101337,0.139891,0.873529,2.54209,4.3902,0.0229365,-0.804488,-0.477362,0.324492,1.7,-0.7,0,10994,47.979,25.684,12322.9
260000893,0.63477,2.223,94.9523,-0.161227,0.275734,0.857281,2.45178,4.10251,-0.00856926,-2.77275,-1.18892,0.512254,1.7,-0.7,0,10994,47.979,25.684,12322.9
260103101,0.63477,2.223,94.9532,-0.199848,0.358615,0.840834,2.32716,3.71267,-0.0701084,-3.64946,-1.49199,1.28241,1.7,-0.7,0,10994,47.979,25.684,12322.9
260203446,0.63477,2.223,94.9668,-0.212273,0.384783,0.832737,2.184,3.23202,-0.093332,-4.21901,-1.81575,1.90476,1.7,-0.7,0,10994,47.979,25.684,12322.9
260303799,0.63477,2.223,94.9701,-0.198118,0.354905,0.836821,2.03578,2.75074,-0.0758028,-4.10124,-1.72381,1.84891,1.7,-0.7,0,10994,47.979,25.684,12322.9
260404155,0.63477,2.223,94.9535,-0.171723,0.291757,0.847732,1.91292,2.34352,-0.0793569,-3.49735,-1.46508,1.40289,1.7,-0.7,0,10994,47.993,26.158,12554
260504509,0.63477,2.223,94.9435,-0.136604,0.228847,0.858178,1.82139,2.00369,-0.0783853,-2.98899,-1.32665,0.807138,1.7,-0.7,0,10994,47.993,26.158,12554
260604881,0.63477,2.223,94.9497,-0.109265,0.164868,0.866717,1.73371,1.73875,-0.0550949,-2.41559,-0.937513,0.2882,1.7,-0.7,0,10994,47.993,26.158,12554
260705208,0.63477,2.223,94.9509,-0.0895539,0.104916,0.873448,1.6892,1.54855,-0.0604327,-1.61433,-0.816107,0.0467425,1.7,-0.7,0,10994,47.993,26.158,12554
260805501,0.63477,2.223,94.9418,-0.0771614,0.0651683,0.877121,1.66487,1.40676,-0.057794,-1.09665,-0.581277,0.147165,1.7,-0.7,0,10994,47.993,26.158,12554
260905868,0.63477,2.223,94.9319,-0.0692184,0.0356358,0.879721,1.66186,1.30092,-0.0523611,-0.739125,-0.587575,0.179572,1.7,-0.7,0,10994,47.993,26.158,12554
261006176,0.63477,2.223,94.925,-0.0598102,0.0163334,0.880928,1.67361,1.22787,-0.0451448,-0.430266,-0.447624,0.157174,1.7,-0.7,0,10994,47.993,26.158,12554
261106490,0.63477,2.223,94.9141,-0.0518938,0.00548306,0.881229,1.69221,1.16853,-0.0473607,-0.302789,-0.434416,-0.0119052,1.7,-0.7,0,10994,47.993,26.158,12554
261206858,0.63477,2.223,94.9013,-0.0450035,-0.00260623,0.881318,1.70937,1.134,-0.043008,-0.115269,-0.229014,0.186273,1.7,-0.7,0,10994,47.993,26.158,12554
261307208,0.63477,2.223,94.8945,-0.0409723,-0.00604697,0.881517,1.73279,1.11244,-0.0416744,-0.0697605,-0.234783,0.345089,1.7,-0.7,0,10994,47.993,26.158,12554
261407575,0.634771,2.223,94.8922,-0.0372937,-0.00672514,0.881633,1.75117,1.0971,-0.0301144,-0.0883279,-0.0706635,0.0602128,1.7,-0.7,0,10950,47.992,25.872,12416.5
261507933,0.634771,2.223,94.8901,-0.0333214,-0.00472877,0.88193,1.76322,1.09115,-0.0276818,-0.104149,-0.0786995,0.219049,1.7,-0.7,0,10950,47.992,25.872,12416.5
261608358,0.634771,2.223,94.8877,-0.0306156,-0.00335165,0.881944,1.78252,1.08744,-0.0211549,-0.043937,-0.11583,-0.0511116,1.7,-0.7,0,10950,47.992,25.872,12416.5
261708725,0.634771,2.223,94.8797,-0.0257475,-0.00188524,0.88205,1.79232,1.0887,-0.0298107,-0.084101,0.00689887,-0.0291332,-0.7,-5,0,10950,47.992,25.872,12416.5
261809112,0.634771,2.223,94.8765,-0.0408136,0.0141559,0.881847,1.8047,1.09354,-0.0171052,0.0185789,0.0400162,0.577833,-0.7,-5,0,10950,47.992,25.872,12416.5
261909476,0.634771,2.223,94.874,-0.156063,0.0898103,0.875311,1.8093,1.04745,-0.000690691,-0.618364,-0.584918,-0.0081653,-0.7,-5,0,10950,47.992,25.872,12416.5
262009802,0.634771,2.223,94.8713,-0.273336,0.151244,0.861477,1.87342,0.837176,-0.0191811,-1.25124,-1.66645,1.23348,-0.7,-5,0,10950,47.992,25.872,12416.5
262110132,0.634771,2.223,94.8756,-0.342157,0.185726,0.850326,1.98319,0.526687,-0.0318818,-1.76775,-2.6852,0.95875,-0.7,-5,0,10950,47.992,25.872,12416.5
262210442,0.634771,2.223,94.8852,-0.37629,0.20245,0.843977,2.11357,0.151937,-0.0367974,-2.01398,-3.1088,1.58189,-0.7,-5,0,10950,47.992,25.872,12416.5
262310791,0.634771,2.223,94.8866,-0.383626,0.206129,0.843064,2.26746,-0.237791,-0.0307393,-2.01863,-3.30659,1.58942,-0.7,-5,0,10950,47.992,25.872,12416.5
262411141,0.634771,2.223,94.8782,-0.377344,0.205772,0.843636,2.41247,-0.633525,-0.026273,-2.02528,-3.2048,1.77012,-0.7,-5,0,10905,48.013,25.554,12269.2
262511485,0.634771,2.223,94.8701,-0.369274,0.202762,0.844978,2.55377,-1.02706,-0.016494,-2.02158,-3.16409,1.57242,-0.7,-5,0,10905,48.013,25.554,12269.2
262611839,0.634771,2.223,94.8639,-0.361406,0.199038,0.84652,2.68199,-1.41082,-0.0397743,-1.96456,-2.89945,1.96302,-0.7,-5,0,10905,48.013,25.554,12269.2
262712217,0.634771,2.223,94.8581,-0.354498,0.19363,0.848022,2.8107,-1.7847,-0.0132483,-1.89152,-2.9652,1.50482,-0.7,-5,0,10905,48.013,25.554,12269.2
262812555,0.634771,2.223,94.8524,-0.345732,0.184311,0.851209,2.93733,-2.14042,-0.0177303,-1.82708,-2.82831,1.47219,-0.7,-5,0,10905,48.013,25.554,12269.2
262912947,0.634771,2.223,94.8493,-0.310204,0.160263,0.858649,3.06264,-2.47024,-0.00963428,-1.56682,-2.58142,1.48732,-0.7,-5,0,10905,48.013,25.554,12269.2
263013278,0.634771,2.223,94.8548,-0.267187,0.136775,0.865495,3.18288,-2.73504,0.00368012,-1.27101,-2.20852,1.03907,-0.7,-5,0,10905,48.013,25.554,12269.2
263113614,0.634771,2.223,94.8658,-0.227314,0.112587,0.871252,3.26796,-2.94407,0.0137156,-1.0513,-1.66029,0.817643,-0.7,-5,0,10905,48.013,25.554,12269.2
263213968,0.634771,2.223,94.8767,-0.195363,0.0919795,0.874733,3.3352,-3.11315,0.0279644,-0.82912,-1.36471,0.46543,-0.7,-5,0,10905,48.013,25.554,12269.2
263314313,0.634771,2.223,94.8889,-0.169804,0.0790822,0.876996,3.39419,-3.23728,0.0263185,-0.638855,-0.995363,0.357925,-0.7,-5,0,10905,48.013,25.554,12269.2
263414616,0.634771,2.223,94.9031,-0.148333,0.0709373,0.878033,3.4508,-3.33321,0.0331652,-0.479798,-0.894093,-0.00942898,-0.7,-5,0,10905,48.013,25.554,12269.2
263514976,0.634771,2.223,94.9135,-0.13119,0.0639444,0.879271,3.48265,-3.4133,0.0201722,-0.472327,-0.678826,-0.227142,-0.7,-5,0,10905,47.96,25.88,12412
263615312,0.634771,2.223,94.924,-0.119968,0.0597898,0.879845,3.51427,-3.47373,0.0133412,-0.379143,-0.552303,-0.132817,-0.7,-5,0,10905,47.96,25.88,12412
263715742,0.634772,2.223,94.9303,-0.110575,0.0588744,0.880485,3.52963,-3.52523,-0.000385202,-0.383487,-0.410113,0.00999217,-3.63942,4.6639,0,10905,47.96,25.88,12412
263816117,0.634772,2.223,94.9323,-0.0823642,0.0483637,0.880836,3.53889,-3.55225,-0.0192445,-0.281002,-0.252191,0.572892,-3.62382,4.84196,0,10905,47.96,25.88,12412
263916457,0.634772,2.223,94.9367,0.103671,0.011345,0.883744,3.52578,-3.53895,0.0352192,-0.00974317,0.517526,0.404311,-3.60369,5.02213,0,10905,47.96,25.88,12412
264016751,0.634772,2.223,94.9485,0.275801,-0.0177317,0.878271,3.3648,-3.33504,0.0212612,0.441124,2.7253,0.0615942,-3.61801,5.16977,0,10905,47.96,25.88,12412
264118442,0.634772,2.223,94.9457,0.389734,-0.0303049,0.870656,3.09986,-3.01972,-0.0444001,0.594598,3.93335,1.09064,-3.65466,5.28464,0,10905,47.96,25.88,12412
264218796,0.634772,2.223,94.9369,0.445949,-0.0325341,0.866268,2.75896,-2.62191,-0.0645295,0.703373,4.61071,2.06763,-3.67399,5.40535,0,10905,47.96,25.88,12412
264319199,0.634772,2.223,94.9218,0.457977,-0.0252818,0.866457,2.37975,-2.21016,-0.103816,0.565102,4.92031,2.15967,-3.68057,5.5075,0,10905,47.96,25.88,12412
264419595,0.634772,2.223,94.8987,0.439822,-0.0193942,0.86654,1.99299,-1.79328,-0.114882,0.523216,4.77686,2.53828,-3.68374,5.59974,0,10905,47.96,25.88,12412
264519974,0.634772,2.223,94.8793,0.395362,-0.0104782,0.868529,1.60654,-1.38529,-0.0977243,0.51525,4.72068,2.48167,-3.68497,5.65469,0,10905,47.911,27.331,13094.6
264620362,0.634772,2.223,94.8691,0.333555,0.00167547,0.872421,1.27568,-1.04078,-0.0860498,0.271689,3.96509,1.95476,-3.67105,5.71082,0,10905,47.911,27.331,13094.6
264720667,0.634772,2.223,94.8657,0.269704,0.00942693,0.87505,0.980726,-0.753853,-0.0500816,0.212378,3.4462,1.39005,-3.66888,5.71907,0,10905,47.911,27.331,13094.6
264822191,0.634772,2.223,94.8667,0.207009,0.0241677,0.878424,0.743599,-0.523471,-0.0258684,0.113563,2.81808,0.728492,-3.65734,5.73281,0,10905,47.911,27.331,13094.6
264924072,0.634772,2.223,94.8741,0.221627,0.08873,0.886584,0.504685,-0.326239,0.001488,-0.271981,2.2154,0.710189,-3.60859,5.71317,0,10905,47.911,27.331,13094.6
265025631,0.634772,2.223,94.8895,0.267932,0.152291,0.898748,0.220934,-0.219727,-0.0012158,-1.10374,2.5428,0.948043,-3.5196,5.69366,0,10905,47.911,27.331,13094.6
265126339,0.634772,2.223,94.8985,0.308425,0.197265,0.910418,-0.137266,-0.122413,-0.0354576,-1.50435,2.99489,1.0094,-3.42741,5.65288,0,10905,47.911,27.331,13094.6
265227127,0.634772,2.223,94.8998,0.330652,0.220721,0.917247,-0.554232,-0.039349,-0.0337411,-1.77604,3.22765,1.71321,-3.36728,5.61532,0,10905,47.911,27.331,13094.6
265327484,0.634772,2.223,94.904,0.338873,0.229921,0.920754,-1.00011,0.0415847,-0.0275397,-1.97877,3.52494,1.59436,-3.32329,5.56764,0,10905,47.911,27.331,13094.6
265427809,0.634772,2.223,94.906,0.338887,0.232901,0.922209,-1.43346,0.112024,-0.0169344,-1.89121,3.32738,1.76978,-3.28989,5.51733,0,10905,47.911,27.331,13094.6
265528254,0.634772,2.223,94.9048,0.334679,0.233747,0.922758,-1.85625,0.176231,-0.0212569,-2.00887,3.34266,1.32948,-3.24693,5.4552,0,10905,47.909,28.39,13601.4
265628637,0.634772,2.223,94.8981,0.32821,0.231835,0.922615,-2.27699,0.221911,-0.0262762,-1.97241,3.16946,1.6945,-3.20701,5.38591,0,10905,47.909,28.39,13601.4
265729005,0.634772,2.223,94.8921,0.320019,0.226491,0.921512,-2.68491,0.268637,-0.0265914,-1.87196,3.14045,1.51031,-3.15634,5.3074,0,10905,47.909,28.39,13601.4
265831076,0.634772,2.223,94.8905,0.312646,0.220906,0.920424,-3.07289,0.319148,-0.0233818,-1.78973,3.02092,1.43849,-3.10474,5.21784,0,10905,47.909,28.39,13601.4
265936841,0.634772,2.223,94.8905,0.306216,0.215797,0.919411,-3.43431,0.354479,-0.0239365,-1.73317,2.82509,1.20078,-3.03492,5.12075,0,10905,47.909,28.39,13601.4
266037213,0.634772,2.223,94.8839,0.30131,0.210899,0.918646,-3.79624,0.374901,-0.0154767,-1.87653,2.61931,1.66347,-2.96473,5.01281,0,10905,47.909,28.39,13601.4
266137557,0.634771,2.223,94.8824,0.297385,0.205439,0.918067,-4.13272,0.408817,-0.0190293,-1.61525,2.69321,1.16626,-2.87837,4.90085,0,10905,47.909,28.39,13601.4
266237919,0.634771,2.223,94.8868,0.285453,0.196314,0.915247,-4.4476,0.453489,-0.0205291,-1.41835,2.61764,1.01904,-2.80617,4.77354,0,10905,47.909,28.39,13601.4
266338290,0.634771,2.223,94.8869,0.243747,0.169531,0.907437,-4.74689,0.484174,-0.0149051,-1.31809,2.36057,1.01398,-2.7537,4.64255,0,10905,47.909,28.39,13601.4
266438685,0.634771,2.223,94.8829,0.191646,0.136257,0.899278,-4.97425,0.510715,-0.00319019,-0.98583,1.81826,0.632097,-2.70191,4.4989,0,10905,47.909,28.39,13601.4
266539042,0.634771,2.223,94.8849,0.140543,0.101593,0.892323,-5.1312,0.528249,0.00462961,-0.673189,1.31126,0.25894,-2.63447,4.35467,0,10905,47.908,25.851,12384.7
266639401,0.634771,2.223,94.8924,0.0933886,0.0697626,0.887998,-5.22112,0.55134,0.017382,-0.28109,0.878385,0.0353074,-2.55153,4.20239,0,10905,47.908,25.851,12384.7
266739801,0.634771,2.223,94.897,0.0555261,0.0424548,0.88555,-5.2587,0.549316,0.0292041,-0.124591,0.358474,-0.20387,-2.45769,4.05688,0,10905,47.908,25.851,12384.7
266840242,0.634771,2.223,94.8966,0.0255064,0.0195967,0.884435,-5.24209,0.567732,0.00782245,0.335902,0.0446163,0.144905,-2.35643,3.90459,0,10905,47.908,25.851,12384.7
266940568,0.634771,2.223,94.8991,-0.000272876,0.0033774,0.883412,-5.17629,0.572264,0.0104555,0.446413,-0.225758,0.143781,-2.26148,3.76512,0,10905,47.908,25.851,12384.7
267042195,0.634771,2.223,94.9024,-0.0220764,-0.0118665,0.883906,-5.08305,0.584432,-0.000102583,0.721665,-0.450002,-0.383044,-2.16069,3.623,0,10905,47.908,25.851,12384.7
267149048,0.634771,2.223,94.9043,-0.0432654,-0.0249261,0.884306,-4.95519,0.59229,0.00312179,0.776988,-0.700022,0.42932,-2.06949,3.49336,0,10905,47.908,25.851,12384.7
267249416,0.634771,2.223,94.8986,-0.0581485,-0.03325,0.884507,-4.81184,0.586792,0.00158895,0.836489,-0.933752,0.0918026,-1.97677,3.35423,0,10905,47.908,25.851,12384.7
267349781,0.634771,2.223,94.896,-0.0668006,-0.0351298,0.884848,-4.6601,0.581537,-0.0202304,0.795322,-0.986549,0.0403856,-1.89942,3.23621,0,10905,47.908,25.851,12384.7
267450138,0.63477,2.223,94.8973,-0.0705923,-0.0322685,0.884137,-4.48301,0.577723,0.0173928,0.937272,-1.04565,1.50154,-1.82419,3.1124,0,10905,47.908,25.851,12384.7
267550492,0.63477,2.223,94.8986,-0.0687131,-0.0290071,0.884003,-4.33394,0.560507,-0.00895671,0.61809,-1.02216,-0.56457,-1.76207,3.00847,0,10905,47.792,29.128,13920.9
267650840,0.63477,2.223,94.8979,-0.0661858,-0.0277409,0.884416,-4.1979,0.537234,-0.0256372,0.583562,-0.951826,0.326217,-1.69304,2.89782,0,10905,47.792,29.128,13920.9
267751221,0.63477,2.223,94.9,-0.062005,-0.0234997,0.883835,-4.05361,0.525242,-0.0304081,0.62907,-0.916759,-0.0523106,-1.63932,2.80224,0,10905,47.792,29.128,13920.9
267851596,0.63477,2.223,94.9066,-0.0576723,-0.0212177,0.883052,-3.9338,0.513564,-0.0374078,0.524272,-0.737236,0.121485,-1.58009,2.69908,0,10905,47.792,29.128,13920.9
267951953,0.63477,2.223,94.9053,-0.0549548,-0.0217132,0.883351,-3.79853,0.498942,-0.05681,0.589091,-0.922535,0.0654512,-1.52742,2.61,0,10905,47.792,29.128,13920.9
268052366,0.63477,2.223,94.8953,-0.0537139,-0.0207629,0.883403,-3.65814,0.508687,-0.0603309,0.752456,-0.801252,0.414195,-1.47008,2.51419,0,10905,47.792,29.128,13920.9
268152734,0.63477,2.223,94.8885,-0.0545563,-0.0180062,0.883043,-3.53393,0.504406,-0.045571,0.592065,-0.798547,-0.0203846,-1.4219,2.42681,0,10905,47.792,29.128,13920.9
268253087,0.63477,2.223,94.8921,-0.0546055,-0.0150041,0.882733,-3.40526,0.487123,-0.0369569,0.565346,-0.952804,0.210078,-1.37005,2.33502,0,10905,47.792,29.128,13920.9
268353431,0.63477,2.223,94.8928,-0.0509186,-0.0109117,0.882681,-3.28293,0.474917,-0.0331883,0.494856,-0.837119,0.104895,-1.324,2.25069,0,10905,47.792,29.128,13920.9
268453771,0.63477,2.223,94.8931,-0.0480979,-0.0100696,0.881958,-3.17425,0.457792,-0.0288906,0.471697,-0.78405,0.228727,-1.27706,2.16368,0,10905,47.792,29.128,13920.9
268554138,0.63477,2.223,94.8982,-0.0436789,-0.00890987,0.881508,-3.07117,0.443481,-0.0101382,0.401367,-0.759996,-0.559003,-1.23261,2.08172,0,10905,47.785,29.41,14053.6
268654482,0.63477,2.223,94.9124,-0.0437327,-0.00896771,0.881403,-2.97141,0.4412,-0.025081,0.477947,-0.651917,0.0312252,-1.18562,1.99961,0,10905,47.785,29.41,14053.6
268754884,0.63477,2.223,94.9252,-0.0446245,-0.00710958,0.881082,-2.88281,0.440166,-0.00887026,0.46235,-0.601256,0.0491226,-1.14214,1.91958,0,10905,47.785,29.41,14053.6
268855172,0.63477,2.223,94.9332,-0.0414249,-0.00407027,0.882078,-2.78846,0.430033,-0.0139948,0.437275,-0.716722,-0.565287,-1.09604,1.84141,0,10905,47.785,29.41,14053.6
268955489,0.63477,2.223,94.9349,-0.0435758,-0.00486469,0.882724,-2.70488,0.425967,-0.0297353,0.452872,-0.649756,0.214598,-1.05238,1.76391,0,10905,47.785,29.41,14053.6
269055858,0.63477,2.223,94.9341,-0.0463535,-0.00507064,0.883142,-2.61843,0.413625,-0.0387522,0.424685,-0.73351,0.269328,-1.00945,1.68795,0,10905,47.785,29.41,14053.6
269156283,0.63477,2.223,94.9295,-0.0481327,-0.0050646,0.883371,-2.52986,0.404072,-0.0269346,0.380801,-0.745056,-0.043457,-0.968128,1.61206,0,10905,47.785,29.41,14053.6
269256595,0.63477,2.223,94.9233,-0.0486417,-0.00665245,0.883384,-2.43847,0.390085,-0.046897,0.432719,-0.82365,-0.086254,-0.928203,1.53899,0,10905,47.785,29.41,14053.6
269356946,0.63477,2.223,94.9178,-0.05296,-0.00717409,0.883387,-2.35327,0.384751,-0.0688881,0.422858,-0.736692,0.114546,-0.890389,1.46736,0,10905,47.785,29.41,14053.6
269457296,0.63477,2.223,94.9122,-0.0547557,-0.00677017,0.88348,-2.26288,0.376831,-0.0440188,0.468646,-0.723713,0.0573675,-0.853822,1.39943,0,10905,47.785,29.41,14053.6
269557635,0.63477,2.223,94.9088,-0.055536,-0.00194522,0.883168,-2.16917,0.367462,-0.0624353,0.424388,-0.852126,-0.431765,-0.819893,1.33183,0,10905,47.978,24.67,11836.2
269658457,0.634769,2.223,94.9094,-0.0568257,0.000388682,0.882709,-2.06175,0.347741,-0.022143,0.303445,-0.824625,0.567347,-0.787224,1.26756,0,10905,47.978,24.67,11836.2
269760364,0.634769,2.223,94.918,-0.056119,0.00172062,0.88302,-1.98141,0.326747,-0.0209713,0.229927,-0.671484,0.702066,-0.755978,1.20593,0,10905,47.978,24.67,11836.2
269861392,0.634769,2.223,94.9284,-0.0544565,0.00180671,0.883093,-1.90777,0.310962,-0.0312987,0.311482,-0.663361,-0.21209,-0.725581,1.14807,0,10905,47.978,24.67,11836.2
269961829,0.634769,2.223,94.939,-0.0540001,0.00308466,0.883196,-1.83117,0.299135,-0.0383227,0.285551,-0.609544,0.052173,-0.697029,1.09107,0,10905,47.978,24.67,11836.2
270063417,0.634769,2.223,94.9472,-0.0533708,0.00456482,0.883307,-1.75681,0.279962,-0.0295964,0.212578,-0.641691,-0.169221,-0.667456,1.03449,0,10905,47.978,24.67,11836.2
270163793,0.634769,2.223,94.9516,-0.0538866,0.00459268,0.883757,-1.69014,0.26427,-0.0381883,0.214509,-0.62148,-0.11071,-0.642254,0.985601,0,10905,47.978,24.67,11836.2
270264186,0.634769,2.223,94.9486,-0.0530165,0.00560711,0.883717,-1.61877,0.249101,-0.0393077,0.251592,-0.628624,0.0292981,-0.616198,0.936699,0,10905,47.978,24.67,11836.2
270364591,0.634769,2.223,94.9442,-0.0539978,0.00706427,0.883934,-1.55309,0.221364,-0.0463379,0.131879,-0.709515,0.035765,-0.592115,0.890668,0,10905,47.978,24.67,11836.2
270464984,0.634769,2.223,94.9448,-0.0511675,0.00581969,0.883724,-1.474,0.19932,-0.0449995,0.219583,-0.72742,0.0845093,-0.568322,0.846928,0,10905,47.978,24.67,11836.2
270565297,0.634769,2.223,94.9403,-0.0480481,0.00577914,0.883276,-1.40356,0.175647,-0.0413903,0.205636,-0.721183,0.141797,-0.546277,0.805934,0,10905,48.009,23.72,11387.7
270665671,0.634769,2.223,94.9387,-0.0448515,0.00422213,0.883187,-1.34501,0.162143,-0.0412345,0.217632,-0.512518,0.0343473,-0.523753,0.767425,0,10905,48.009,23.72,11387.7
270766046,0.634769,2.223,94.9379,-0.043036,0.00348869,0.882814,-1.29005,0.145432,-0.0359407,0.113111,-0.496698,0.281784,-0.50354,0.731004,0,10905,48.009,23.72,11387.7
270866397,0.634769,2.223,94.9333,-0.0398809,0.00116778,0.88262,-1.23776,0.128187,-0.0507727,0.185414,-0.482599,0.0808436,-0.483252,0.696294,0,10905,48.009,23.72,11387.7
270966719,0.634769,2.223,94.9286,-0.0389981,0.000396856,0.882129,-1.18215,0.117494,-0.0511725,0.21185,-0.483902,0.00878526,-0.464029,0.661442,0,10905,48.009,23.72,11387.7
271066901,0.634769,2.223,94.9244,-0.0373772,0.000642074,0.882081,-1.1376,0.101903,-0.0428551,0.0497165,-0.423244,0.218055,-0.444107,0.628492,0,10905,48.009,23.72,11387.7
271167245,0.634769,2.223,94.9206,-0.0356283,0.00128731,0.882037,-1.09428,0.0948027,-0.0486061,0.183405,-0.391535,0.0756971,-0.425868,0.596212,0,10905,48.009,23.72,11387.7
271267637,0.634769,2.223,94.9125,-0.0344768,0.00413226,0.881928,-1.04942,0.0962316,-0.0385695,0.218027,-0.353793,0.0308317,-0.407427,0.566237,0,10905,48.009,23.72,11387.7
271368032,0.634769,2.223,94.9114,-0.0339513,0.00552433,0.881618,-1.01481,0.0882506,-0.0355283,0.0658928,-0.350373,-0.0693889,-0.391461,0.53578,0,10905,48.009,23.72,11387.7
271468249,0.634769,2.223,94.9118,-0.0335438,0.00505762,0.881854,-0.967873,0.0853786,-0.0359752,0.20779,-0.393775,0.136345,-0.374947,0.507536,0,10905,48.009,23.72,11387.7
271568654,0.634769,2.223,94.9088,-0.0342089,0.00536216,0.88168,-0.938127,0.0822818,-0.0352721,0.0563325,-0.235595,0.342377,-0.360552,0.479417,0,10905,48.009,23.72,11387.7
271669065,0.634769,2.223,94.9034,-0.0361307,0.00323938,0.881635,-0.902861,0.0812343,-0.0290392,0.152484,-0.302524,0.108917,-0.345764,0.453412,0,10905,48,23.72,11385.6
271769457,0.634769,2.223,94.9003,-0.0368101,0.000903406,0.881318,-0.862209,0.0786476,-0.0202632,0.183404,-0.359881,-0.00549611,-0.333218,0.427262,0,10905,48,23.72,11385.6
271869788,0.634769,2.223,94.9026,-0.0371192,0.000952859,0.880997,-0.812728,0.0738777,-0.0191205,0.215935,-0.408601,-0.144948,-0.32014,0.403012,0,10905,48,23.72,11385.6
271970183,0.634769,2.223,94.9042,-0.0376978,0.00173376,0.881343,-0.760644,0.0746861,-0.0325515,0.223949,-0.382421,0.0905191,-0.30892,0.380217,0,10905,48,23.72,11385.6
272070539,0.634769,2.223,94.9037,-0.0368909,0.00434715,0.8814,-0.725992,0.0668774,-0.0285409,0.0579683,-0.334643,-0.0824619,-0.296824,0.358455,0,10905,48,23.72,11385.6
272170907,0.634769,2.223,94.9055,-0.0371962,0.00451686,0.881527,-0.683864,0.0591308,-0.0199645,0.129934,-0.362321,0.0651328,-0.287962,0.338893,0,10905,48,23.72,11385.6
272271271,0.634769,2.223,94.9065,-0.0349983,0.00573896,0.881391,-0.6432,0.0554601,-0.0211127,0.157506,-0.353586,-0.168606,-0.277974,0.319714,0,10905,48,23.72,11385.6
272371628,0.634769,2.223,94.909,-0.0338793,0.00715566,0.880758,-0.610286,0.0517921,-0.0160463,0.0802275,-0.277985,-0.130792,-0.26964,0.302305,0,10905,48,23.72,11385.6
272471928,0.634769,2.223,94.9055,-0.0327267,0.00866486,0.880432,-0.577022,0.0403834,-0.0215014,0.0310594,-0.309107,0.0173984,-0.260529,0.286577,0,10905,48,23.72,11385.6
272572392,0.634769,2.223,94.8976,-0.0315797,0.00808433,0.880172,-0.549934,0.0323683,-0.0295928,0.0989282,-0.21271,0.0631958,-0.253371,0.272338,0,10905,48,23.72,11385.6
272674429,0.634769,2.223,94.8919,-0.0302894,0.00863161,0.879769,-0.51791,0.0233852,-0.027421,0.067953,-0.244543,0.0429338,-0.245541,0.25892,0,10905,47.97,25.104,12042.4
272774822,0.634769,2.223,94.8864,-0.0298804,0.00865993,0.879369,-0.489497,0.0269582,-0.0255535,0.207476,-0.215567,0.0948208,-0.23146,0.234893,0,10905,47.97,25.104,12042.4
272875220,0.634769,2.223,94.8892,-0.0325323,0.00915325,0.879354,-0.462657,0.0263166,-0.00961938,0.158321,-0.293292,0.0285047,2.2,-1,0,10905,47.97,25.104,12042.4
272975584,0.634769,2.223,94.8923,-0.032462,0.00792737,0.879542,-0.437533,0.0194734,-0.0166562,0.0644758,-0.248212,0.120662,2.2,-1,0,10905,47.97,25.104,12042.4
273075959,0.634769,2.223,94.8968,-0.0341022,-0.00105245,0.879772,-0.416054,0.0154567,-0.00994176,0.14421,-0.245185,-0.185185,2.2,-1,0,10905,47.97,25.104,12042.4
273176374,0.634769,2.223,94.8979,-0.0387711,-0.00698465,0.880034,-0.379376,0.0219341,-0.0179033,0.268556,-0.231446,0.0686392,2.2,-1,0,10905,47.97,25.104,12042.4
273276728,0.634769,2.223,94.902,-0.0427856,-0.0106827,0.880244,-0.337075,0.0298916,-0.0212833,0.299409,-0.298108,0.0477776,2.2,-1,0,10905,47.97,25.104,12042.4
273377077,0.634769,2.223,94.9038,-0.0441527,-0.0111627,0.880083,-0.277416,0.0435261,-0.00403307,0.376107,-0.349067,0.0417123,2.2,-1,0,10905,47.97,25.104,12042.4
273477455,0.634769,2.223,94.9062,-0.0443349,-0.00895076,0.880076,-0.230774,0.0549956,-0.023114,0.284299,-0.256719,-0.243548,2.2,-1,0,10905,47.97,25.104,12042.4
273577818,0.634769,2.223,94.9094,-0.0450949,-0.00718963,0.879887,-0.184074,0.0639045,-0.0185452,0.31589,-0.268767,0.10612,2.2,-1,0,10905,47.97,25.104,12042.4
273678168,0.634769,2.223,94.9112,-0.0443997,-0.00404989,0.879808,-0.143071,0.065506,-0.018191,0.179541,-0.31703,0.245837,2.2,-1,0,10905,47.938,25.195,12078
273778538,0.634769,2.223,94.9183,-0.0419913,0.000196036,0.879518,-0.103484,0.0583146,-0.00437846,0.154878,-0.299863,-0.392146,2.2,-1,0,10905,47.938,25.195,12078
273878896,0.634769,2.223,94.9236,-0.0390129,0.00496972,0.879188,-0.0679896,0.0566751,-0.0174039,0.124516,-0.251873,-0.0207377,2.2,-1,0,10905,47.938,25.195,12078
273979185,0.634769,2.223,94.9297,-0.0383031,0.00494944,0.878219,-0.0380098,0.0514396,-0.0203642,0.0623497,-0.273185,-0.177816,2.2,-1,0,10905,47.938,25.195,12078
274079404,0.634769,2.223,94.9336,-0.0863163,-0.108772,0.880427,-0.00339139,0.0425029,0.00217422,0.303412,-0.365828,0.308461,2.2,-1,0,10905,47.938,25.195,12078
274179787,0.634769,2.223,94.9339,-0.141655,-0.235493,0.895062,0.194052,0.130426,-0.0208738,1.9921,-1.03805,0.0300757,2.2,-1,0,10905,47.938,25.195,12078
274280168,0.634769,2.223,94.9246,-0.179813,-0.316274,0.908813,0.49583,0.276174,-0.0573094,2.92227,-1.30198,1.11364,2.2,-1,0,10905,47.938,25.195,12078
274380408,0.634769,2.223,94.9015,-0.185423,-0.327628,0.911868,0.875708,0.447475,-0.0512981,3.30685,-1.61434,1.57434,2.2,-1,0,10905,47.938,25.195,12078
274480804,0.634769,2.223,94.8781,-0.166306,-0.292525,0.90659,1.23584,0.614542,-0.052166,3.11958,-1.4993,1.27397,2.2,-1,0,10905,47.938,25.195,12078
274581183,0.634769,2.223,94.8589,-0.138501,-0.240387,0.898837,1.53708,0.741382,-0.03222,2.57751,-1.34498,1.03709,2.2,-1,0,10905,47.938,25.195,12078
274681542,0.634769,2.223,94.844,-0.110973,-0.188134,0.892739,1.76751,0.84953,-0.0395831,2.05323,-1.01525,0.550529,2.2,-1,0,10905,47.938,25.195,12078
274781935,0.634769,2.223,94.8377,-0.0895996,-0.140254,0.888122,1.94653,0.927861,-0.0302475,1.44777,-0.768731,0.701548,2.2,-1,0,10905,47.938,25.195,12078
274882355,0.634769,2.223,94.8423,-0.0706316,-0.100915,0.885141,2.08619,0.98995,-0.00623338,1.12537,-0.596125,0.17537,-1.1,-3.6,0,10905,47.938,25.195,12078
274982670,0.634769,2.223,94.8575,-0.0705533,-0.0467598,0.88093,2.18207,1.03307,-0.000199433,0.778184,-0.338342,0.648334,-1.1,-3.6,0,10905,47.938,25.195,12078
275083018,0.634769,2.223,94.8835,-0.148693,0.120685,0.872725,2.23229,1.0152,0.0558914,-0.310404,-0.601466,0.190468,-1.1,-3.6,0,10905,47.938,25.195,12078
275183391,0.634769,2.223,94.9109,-0.227048,0.24488,0.852475,2.22559,0.779582,0.0165244,-2.16009,-1.53257,0.0404857,-1.1,-3.6,0,10905,47.938,25.195,12078
275283753,0.634769,2.223,94.9362,-0.283038,0.314455,0.832842,2.20987,0.41727,-0.0216799,-2.91488,-2.14022,1.1469,-1.1,-3.6,0,10861,47.921,25.411,12177.2
275384121,0.634769,2.223,94.9637,-0.310838,0.34419,0.820994,2.1856,-0.0232666,-0.0301234,-3.38645,-2.49691,1.59711,-1.1,-3.6,0,10861,47.921,25.411,12177.2
275484463,0.634769,2.223,94.9744,-0.319347,0.343356,0.817457,2.15836,-0.484534,-0.0317178,-3.33546,-2.45416,2.04586,-1.1,-3.6,0,10861,47.921,25.411,12177.2
275584793,0.634769,2.223,94.9641,-0.323055,0.325826,0.819456,2.13516,-0.940103,-0.0186263,-3.35598,-2.58527,1.62819,-1.1,-3.6,0,10861,47.921,25.411,12177.2
275685163,0.634769,2.223,94.9541,-0.319532,0.30093,0.825859,2.13492,-1.38186,-0.0318233,-3.12491,-2.59004,1.66836,-1.1,-3.6,0,10861,47.921,25.411,12177.2
275785485,0.634769,2.223,94.955,-0.286296,0.25576,0.839667,2.1446,-1.79045,-0.0350061,-2.67041,-2.32707,1.6845,-1.1,-3.6,0,10861,47.921,25.411,12177.2
275885776,0.634769,2.223,94.9416,-0.245835,0.205717,0.852997,2.1528,-2.13197,-0.0260212,-2.25706,-1.9977,1.12086,-1.1,-3.6,0,10861,47.921,25.411,12177.2
275986114,0.63477,2.223,94.9212,-0.205593,0.158701,0.863258,2.17645,-2.39808,-0.027218,-1.63331,-1.72956,0.611671,-1.1,-3.6,0,10861,47.921,25.411,12177.2
276086443,0.63477,2.223,94.9091,-0.170549,0.120872,0.870262,2.21587,-2.59101,-0.0251541,-1.0964,-1.4056,-0.0705528,-1.1,-3.6,0,10861,47.921,25.411,12177.2
276186809,0.63477,2.223,94.8984,-0.14249,0.0935318,0.874792,2.24132,-2.73574,-0.033532,-0.809276,-0.961952,0.260374,-1.1,-3.6,0,10861,47.921,25.411,12177.2
276287216,0.63477,2.223,94.882,-0.121012,0.0740965,0.87731,2.26281,-2.85204,-0.0390523,-0.640671,-0.779566,0.188112,-1.1,-3.6,0,10861,47.863,27.238,13036.9
276387601,0.63477,2.223,94.8622,-0.105829,0.0595604,0.879413,2.28536,-2.9313,-0.0391773,-0.377763,-0.536879,0.222185,-1.1,-3.6,0,10861,47.863,27.238,13036.9
276487932,0.63477,2.223,94.8526,-0.0928597,0.0492959,0.87993,2.30079,-3.0009,-0.0319059,-0.381663,-0.475584,0.0393043,-1.1,-3.6,0,10861,47.863,27.238,13036.9
276588318,0.63477,2.223,94.8514,-0.0828325,0.0430433,0.880664,2.31557,-3.05241,-0.00707167,-0.286409,-0.355547,0.232218,-1.1,-3.6,0,10861,47.863,27.238,13036.9
276688669,0.63477,2.223,94.8534,-0.0731754,0.0372852,0.881404,2.33595,-3.08082,-0.0119086,-0.0869194,-0.274642,-0.0466297,-1.1,-3.6,0,10861,47.863,27.238,13036.9
276789063,0.63477,2.223,94.8567,-0.0672959,0.036416,0.881977,2.35033,-3.10133,-0.00418551,-0.0984477,-0.204942,0.151937,-1.1,-3.6,0,10861,47.863,27.238,13036.9
276889470,0.63477,2.223,94.8614,-0.0654384,0.036587,0.882418,2.35977,-3.10607,0.000453774,-0.0146422,-0.083007,0.16349,0.6,-2.5,0,10861,47.863,27.238,13036.9
276989837,0.63477,2.223,94.8673,-0.0515546,0.0125034,0.885465,2.3604,-3.1098,0.0105341,-0.196488,-0.0271774,0.331502,0.6,-2.5,0,10861,47.863,27.238,13036.9
277090220,0.63477,2.223,94.8793,0.0301045,-0.128026,0.881372,2.38602,-3.06003,0.0561616,0.779048,0.305716,0.268111,0.6,-2.5,0,10861,47.863,27.238,13036.9
277190565,0.63477,2.223,94.8834,0.0855995,-0.213603,0.873156,2.42752,-2.82695,0.00610303,2.07793,1.18592,-0.190663,0.6,-2.5,0,10861,47.863,27.238,13036.9
277290924,0.63477,2.223,94.8733,0.106676,-0.243388,0.869662,2.48317,-2.50977,-0.0346881,2.63701,1.55512,0.656966,0.6,-2.5,0,10816,47.8,28.204,13481.5
277391232,0.63477,2.223,94.8541,0.0988038,-0.224155,0.872328,2.54002,-2.17099,-0.0372229,2.64101,1.5069,0.94772,0.6,-2.5,0,10816,47.8,28.204,13481.5
277491573,0.63477,2.223,94.8375,0.069126,-0.169954,0.877471,2.59821,-1.86097,-0.0413803,2.4133,1.32771,0.613152,0.6,-2.5,0,10816,47.8,28.204,13481.5
277591838,0.63477,2.223,94.8211,0.0382005,-0.120344,0.880488,2.63615,-1.63715,-0.0162769,1.68685,1.02803,0.143547,0.6,-2.5,0,10816,47.8,28.204,13481.5
277692103,0.63477,2.223,94.8105,0.0134685,-0.0823341,0.881767,2.66092,-1.46822,-0.0276919,1.2376,0.726573,0.212898,0.6,-2.5,0,10816,47.8,28.204,13481.5
277792396,0.63477,2.223,94.8045,-0.00598358,-0.0509863,0.882223,2.68605,-1.34329,-0.0221223,0.878968,0.43498,0.088014,0.6,-2.5,0,10816,47.8,28.204,13481.5
277892752,0.63477,2.223,94.8076,-0.0194955,-0.0281019,0.881911,2.70251,-1.26477,-0.00951315,0.470528,0.283113,0.160684,0.6,-2.5,0,10816,47.8,28.204,13481.5
277993114,0.63477,2.223,94.8145,-0.029951,-0.0135509,0.881326,2.71048,-1.19769,-0.00256241,0.359689,0.206934,0.0518293,0.6,-2.5,0,10816,47.8,28.204,13481.5
278093500,0.63477,2.223,94.8203,-0.0361131,-0.00238585,0.880776,2.71542,-1.15877,-0.0110961,0.15048,0.0791006,0.301026,0.6,-2.5,0,10816,47.8,28.204,13481.5
278193879,0.63477,2.223,94.8231,-0.0413568,0.00680523,0.880818,2.72992,-1.13387,0.0216275,0.128511,-0.0687926,0.182207,0.6,-2.5,0,10816,47.8,28.204,13481.5
278294250,0.63477,2.223,94.8266,-0.043276,0.0134158,0.880844,2.73337,-1.1162,0.0157196,0.0289452,0.00410538,0.0154835,0.6,-2.5,0,10816,47.839,26.353,12607
278394594,0.634771,2.223,94.8211,-0.045166,0.0185815,0.881076,2.73446,-1.11111,0.0229979,-0.0204191,-0.0585733,0.267117,0.6,-2.5,0,10816,47.839,26.353,12607
278494954,0.634771,2.223,94.8203,-0.0441651,0.0222079,0.881191,2.73376,-1.11223,0.0137063,-0.129753,-0.0228342,-0.0246924,0.6,-2.5,0,10816,47.839,26.353,12607
278595334,0.634771,2.223,94.8223,-0.0431129,0.0225669,0.880918,2.72243,-1.13052,0.00350455,-0.231688,-0.0398444,0.203473,0.6,-2.5,0,10816,47.839,26.353,12607
278695707,0.634771,2.223,94.8224,-0.0408873,0.0208561,0.881027,2.71973,-1.14009,0.0260741,-0.0764473,-0.012092,0.29481,0.6,-2.5,0,10816,47.839,26.353,12607
278796180,0.634771,2.223,94.8226,-0.0402666,0.0208237,0.881208,2.7161,-1.14475,0.036455,-0.0857682,0.00730824,0.147012,0.6,-2.5,0,10816,47.839,26.353,12607
278896562,0.634771,2.223,94.8284,-0.0411865,0.0193656,0.881804,2.70869,-1.14953,0.0264176,-0.0810909,-0.0419939,-0.137344,-3.7,4.9,0,10816,47.839,26.353,12607
278996925,0.634771,2.223,94.8323,-0.0238637,0.0290263,0.881637,2.70383,-1.15931,0.0288177,-0.0883814,-0.0661077,0.256959,-3.7,4.9,0,10816,47.839,26.353,12607
279097292,0.634771,2.223,94.8366,0.127151,0.109217,0.891427,2.64853,-1.17148,0.0688962,-0.57775,0.688414,0.173663,-3.7,4.9,0,10816,47.839,26.353,12607
279197652,0.634771,2.223,94.837,0.267331,0.171469,0.907246,2.38439,-1.12991,0.0169433,-1.4482,2.52111,0.0828229,-3.7,4.9,0,10816,47.839,26.353,12607
279297986,0.634771,2.223,94.8332,0.352836,0.207419,0.92005,1.9928,-1.05718,-0.0298618,-1.86203,3.37802,1.39523,-3.7,4.9,0,10816,47.857,25.867,12379.2
279398385,0.634771,2.223,94.8362,0.396103,0.223142,0.926132,1.51719,-0.955036,-0.0426473,-1.93328,3.84458,2.29945,-3.7,4.9,0,10816,47.857,25.867,12379.2
279498732,0.634771,2.223,94.8297,0.400815,0.225149,0.926824,1.00612,-0.833011,-0.0329751,-1.97711,4.12627,2.43149,-3.7,4.9,0,10816,47.857,25.867,12379.2
279599079,0.634771,2.223,94.8173,0.392839,0.224129,0.925729,0.51576,-0.732551,-0.0372302,-1.91641,3.81238,2.39009,-3.7,4.9,0,10816,47.857,25.867,12379.2
279699441,0.634771,2.223,94.8112,0.381177,0.226469,0.926384,0.0277069,-0.631609,-0.0160352,-1.94024,3.76442,2.35303,-3.7,4.9,0,10816,47.857,25.867,12379.2
279799797,0.634771,2.223,94.8103,0.367728,0.22805,0.926923,-0.455377,-0.547153,0.0113545,-2.14915,3.78981,2.00461,-3.7,4.9,0,10816,47.857,25.867,12379.2
279900190,0.634771,2.223,94.8118,0.354061,0.229002,0.927037,-0.892054,-0.47305,-4.84483e-05,-1.89841,3.34007,1.86328,-3.7,4.9,0,10816,47.857,25.867,12379.2
280000558,0.634771,2.223,94.8097,0.340164,0.22815,0.926102,-1.33157,-0.409447,0.0164249,-1.93308,3.26164,1.97468,-3.7,4.9,0,10816,47.857,25.867,12379.2
280100918,0.634771,2.223,94.8068,0.330979,0.222824,0.92332,-1.75146,-0.34733,0.0171283,-1.93224,3.30428,1.40017,-3.7,4.9,0,10816,47.857,25.867,12379.2
280201275,0.634771,2.223,94.813,0.321354,0.216388,0.919976,-2.14367,-0.282007,0.0266949,-1.7722,3.05249,1.45847,-3.7,4.9,0,10816,47.857,25.867,12379.2
280301599,0.634771,2.223,94.8228,0.312977,0.210771,0.917605,-2.52397,-0.230628,0.0341788,-1.78855,3.00384,1.07573,-3.7,4.9,0,10816,47.857,25.867,12379.2
280401975,0.634771,2.223,94.8323,0.306143,0.204947,0.915447,-2.87754,-0.181912,0.0319334,-1.60531,2.69861,1.42687,-3.7,4.9,0,10772,47.866,25.729,12315.4
280502290,0.634771,2.223,94.8358,0.301567,0.20152,0.913741,-3.20066,-0.121447,0.0155546,-1.41411,2.5353,1.21602,-3.7,4.9,0,10772,47.866,25.729,12315.4
280602620,0.634771,2.223,94.8398,0.297501,0.198868,0.913016,-3.52973,-0.0811656,0.0494611,-1.63872,2.55948,1.118,-3.7,4.9,0,10772,47.866,25.729,12315.4
280702986,0.634771,2.223,94.8462,0.296446,0.197851,0.912366,-3.84252,-0.0441502,0.0239647,-1.53626,2.50302,0.91891,-3.7,4.9,0,10772,47.866,25.729,12315.4
280803348,0.63477,2.223,94.8446,0.295278,0.196447,0.912301,-4.14652,0.00594932,0.0124297,-1.44441,2.55278,1.0385,-3.7,4.9,0,10772,47.866,25.729,12315.4
280903765,0.63477,2.223,94.8436,0.289501,0.193245,0.911003,-4.44637,0.0645858,0.0235778,-1.22129,2.52598,1.21589,-2.9,1.8,0,10772,47.866,25.729,12315.4
281004144,0.63477,2.223,94.8544,0.244695,0.176033,0.904838,-4.73271,0.106985,0.0175501,-1.29161,2.37918,1.08351,-2.9,1.8,0,10772,47.866,25.729,12315.4
281104501,0.63477,2.223,94.8627,0.0116436,0.109252,0.874381,-4.95231,0.121418,0.0996256,-0.953224,1.41704,1.18394,-2.9,1.8,0,10772,47.866,25.729,12315.4
281204855,0.63477,2.223,94.88,-0.22813,0.0455345,0.870629,-4.84955,0.00564365,0.18106,-0.129849,-1.6798,0.490327,-2.9,1.8,0,10772,47.866,25.729,12315.4
281305233,0.63477,2.223,94.8951,-0.327406,0.0224614,0.877038,-4.57999,-0.187056,0.0981172,0.192583,-3.43934,-0.353345,-2.9,1.8,0,10772,47.866,25.729,12315.4
281405628,0.63477,2.223,94.9073,-0.328004,0.0163852,0.880686,-4.27021,-0.402877,0.00480309,0.302771,-3.49401,0.772951,-2.9,1.8,0,10772,47.805,28.265,13512.1
281506031,0.63477,2.223,94.916,-0.279835,0.00710564,0.885309,-3.96549,-0.609179,-0.00411117,0.345299,-3.34362,0.557327,-2.9,1.8,0,10772,47.805,28.265,13512.1
281606417,0.63477,2.223,94.9244,-0.210358,-0.00450328,0.889036,-3.70578,-0.739392,-0.0307259,0.558154,-2.50074,0.241696,-2.9,1.8,0,10772,47.805,28.265,13512.1
281706745,0.63477,2.223,94.909,-0.156649,-0.00266956,0.888159,-3.50161,-0.830521,-0.0575721,0.498236,-1.88194,0.143636,-2.9,1.8,0,10772,47.805,28.265,13512.1
281807095,0.63477,2.223,94.8805,-0.121301,0.0127372,0.885881,-3.33457,-0.909,-0.0637147,0.336975,-1.44515,0.0829839,-2.9,1.8,0,10772,47.805,28.265,13512.1
281907426,0.63477,2.223,94.859,-0.0905576,0.0300908,0.883915,-3.19008,-0.991903,-0.0741107,0.118153,-1.24476,0.0200397,-2.9,1.8,0,10772,47.805,28.265,13512.1
282007729,0.63477,2.223,94.8471,-0.0589928,0.0429901,0.883126,-3.0792,-1.06492,-0.0655517,0.026538,-0.919153,0.491154,-2.9,1.8,0,10772,47.805,28.265,13512.1
282109469,0.63477,2.223,94.8422,-0.0290314,0.0562054,0.882871,-2.99833,-1.11672,-0.0388627,-0.00541557,-0.590281,0.241351,-2.9,1.8,0,10772,47.805,28.265,13512.1
282209848,0.63477,2.223,94.8383,-0.00268733,0.068851,0.883101,-2.94039,-1.15982,-0.0308779,-0.163431,-0.398006,-0.0628502,-2.9,1.8,0,10772,47.805,28.265,13512.1
282310236,0.63477,2.223,94.8441,0.0142848,0.0743974,0.883251,-2.91822,-1.19641,-0.0270923,-0.32477,-0.131259,-0.10004,-2.9,1.8,0,10772,47.805,28.265,13512.1
282410513,0.63477,2.223,94.8588,0.0257185,0.0752333,0.883164,-2.90737,-1.22213,-0.00544487,-0.280476,-0.0547481,0.231742,-2.9,1.8,0,10772,47.643,30.185,14381
282510801,0.63477,2.223,94.8726,0.0371967,0.0730668,0.883389,-2.90824,-1.24698,0.00627788,-0.341023,0.055258,-0.00249234,-2.9,1.8,0,10772,47.643,30.185,14381
282611156,0.634769,2.223,94.8806,0.0432158,0.0732664,0.883443,-2.91494,-1.26054,0.020988,-0.274664,0.166172,-0.0858933,-2.9,1.8,0,10772,47.643,30.185,14381
282711521,0.634769,2.223,94.8968,0.0474542,0.0745933,0.883859,-2.92403,-1.26507,0.0112521,-0.248693,0.165828,-0.186491,-2.9,1.8,0,10772,47.643,30.185,14381
282811860,0.634769,2.223,94.9113,0.0502894,0.0743813,0.884243,-2.94322,-1.26597,0.0120561,-0.269958,0.255768,-0.149126,-2.9,1.8,0,10772,47.643,30.185,14381
282912323,0.634769,2.223,94.921,0.0503627,0.0733695,0.884225,-2.96498,-1.25528,-0.00136681,-0.195952,0.27558,-0.26998,0.5,-1.7,0,10772,47.643,30.185,14381
283012686,0.634769,2.223,94.9215,0.0398361,0.0553309,0.881439,-2.99501,-1.25593,-0.0107958,-0.319513,0.301623,-0.11724,0.5,-1.7,0,10772,47.643,30.185,14381
283113050,0.634769,2.223,94.9203,-0.0963086,-0.0953102,0.882666,-3.00339,-1.25441,0.0360001,0.114173,-0.0926988,0.423346,0.5,-1.7,0,10772,47.643,30.185,14381
283213421,0.634769,2.223,94.9242,-0.225053,-0.206593,0.903796,-2.74151,-1.20238,0.0365798,2.02867,-1.79218,0.128323,0.5,-1.7,0,10772,47.643,30.185,14381
283313791,0.634769,2.223,94.9115,-0.311849,-0.27404,0.923803,-2.36411,-1.16414,-0.0410858,2.62298,-2.63012,0.883751,0.5,-1.7,0,10772,47.643,30.185,14381
283414152,0.634769,2.223,94.8891,-0.36112,-0.309663,0.93645,-1.86123,-1.11383,-0.091214,3.26399,-3.27748,1.8983,0.5,-1.7,0,10772,47.916,27.015,12944.5
283514501,0.634769,2.223,94.8642,-0.378047,-0.312681,0.93802,-1.19727,-1.05899,-0.11939,3.27135,-3.51726,2.48421,0.5,-1.7,0,10772,47.916,27.015,12944.5
283614840,0.634769,2.223,94.8388,-0.374063,-0.299044,0.933011,-0.623021,-1.01753,-0.124499,3.30423,-3.53014,2.56872,0.5,-1.7,0,10772,47.916,27.015,12944.5
283715163,0.634769,2.223,94.8039,-0.344564,-0.281671,0.926835,-0.0524487,-0.983627,-0.0985252,3.1748,-3.3928,3.1067,0.5,-1.7,0,10772,47.916,27.015,12944.5
283815874,0.634769,2.223,94.771,-0.279922,-0.237747,0.912879,0.45163,-0.921336,-0.0511892,3.09866,-2.94477,2.08246,0.5,-1.7,0,10772,47.916,27.015,12944.5
283916308,0.634769,2.223,94.7601,-0.209708,-0.178446,0.898628,0.835643,-0.868355,-0.0067404,2.28396,-2.20079,1.51192,0.5,-1.7,0,10772,47.916,27.015,12944.5
284016665,0.634769,2.223,94.7709,-0.150613,-0.127533,0.890572,1.11014,-0.820466,0.0259489,1.68383,-1.51107,0.762691,0.5,-1.7,0,10772,47.916,27.015,12944.5
284117033,0.634769,2.223,94.793,-0.104292,-0.0851282,0.885678,1.28138,-0.778414,0.0570059,1.19373,-0.908935,0.316363,0.5,-1.7,0,10772,47.916,27.015,12944.5
284217405,0.634769,2.223,94.8268,-0.0774014,-0.051969,0.88279,1.41047,-0.74583,0.0621874,0.802663,-0.662914,-0.0569512,0.5,-1.7,0,10772,47.916,27.015,12944.5
284317788,0.634769,2.223,94.8563,-0.061484,-0.0306865,0.881329,1.48947,-0.718543,0.0577721,0.476834,-0.336616,-0.191608,0.5,-1.7,0,10772,47.916,27.015,12944.5
284418080,0.634769,2.223,94.8742,-0.0555407,-0.0178268,0.880712,1.55024,-0.696902,0.0304086,0.359336,-0.283626,-0.245442,0.5,-1.7,0,10772,47.935,23.173,11108
284518495,0.634769,2.223,94.8922,-0.0535164,-0.00730439,0.880462,1.60989,-0.681444,0.0437587,0.283245,-0.362043,0.164345,0.5,-1.7,0,10772,47.935,23.173,11108
284622133,0.634769,2.223,94.9073,-0.0496059,-0.00211857,0.88011,1.65401,-0.680901,0.0521731,0.149135,-0.340343,-0.599333,0.5,-1.7,0,10772,47.935,23.173,11108
284722554,0.634769,2.223,94.9117,-0.0478861,0.00131228,0.880448,1.68245,-0.675844,0.0195007,0.120432,-0.229962,-0.199036,0.5,-1.7,0,10772,47.935,23.173,11108
284822920,0.634769,2.223,94.9095,-0.0475899,0.00382808,0.880249,1.7067,-0.671857,0.0135321,0.0745638,-0.29055,-0.211681,0.5,-1.7,0,10772,47.935,23.173,11108
284923332,0.634769,2.223,94.9072,-0.0458984,0.0059511,0.880263,1.72917,-0.672464,-0.0158382,0.0930468,-0.30164,-0.0180495,-4.2,1.5,0,10772,47.935,23.173,11108
285023697,0.63477,2.223,94.8955,-0.0263005,0.0342414,0.882644,1.75318,-0.663312,-0.002145,0.237698,-0.221275,0.446127,-4.2,1.5,0,10772,47.935,23.173,11108
285124085,0.63477,2.223,94.8796,0.0927967,0.184737,0.89311,1.70308,-0.668759,0.031894,-0.791413,0.491406,0.023129,-4.2,1.5,0,10772,47.935,23.173,11108
285224418,0.63477,2.223,94.8606,0.197948,0.295594,0.911019,1.44195,-0.736093,-0.0484116,-2.28529,1.62608,0.309729,-4.2,1.5,0,10772,47.935,23.173,11108
285324854,0.63477,2.223,94.8379,0.256609,0.360096,0.925552,1.02328,-0.822941,-0.0747738,-2.97336,2.34084,1.93071,-4.2,1.5,0,10772,47.935,23.173,11108
285425193,0.63477,2.223,94.824,0.277198,0.389875,0.931496,0.528079,-0.927533,-0.0700049,-3.40469,2.63818,2.32435,-4.2,1.5,0,10772,47.914,25.054,12004.4
285525474,0.63477,2.223,94.8041,0.272397,0.396439,0.930748,0.0159473,-1.03373,-0.0462593,-3.46336,2.72059,2.47536,-4.2,1.5,0,10772,47.914,25.054,12004.4
285625838,0.63477,2.223,94.7751,0.259101,0.396245,0.928468,-0.48396,-1.15281,-0.0259001,-3.40203,2.55562,2.6787,-4.2,1.5,0,10772,47.914,25.054,12004.4
285726209,0.63477,2.223,94.7657,0.246157,0.394257,0.926388,-0.968735,-1.27884,0.00864396,-3.35753,2.37902,2.54172,-4.2,1.5,0,10772,47.914,25.054,12004.4
285826573,0.63477,2.223,94.7696,0.229239,0.389366,0.924308,-1.43391,-1.42,0.0251392,-3.40429,2.17942,2.33391,-4.2,1.5,0,10772,47.914,25.054,12004.4
285926926,0.634769,2.223,94.7712,0.210155,0.377811,0.920398,-1.86191,-1.55249,0.027297,-3.17326,2.05142,1.90679,-4.2,1.5,0,10772,47.914,25.054,12004.4
286027241,0.634769,2.223,94.7729,0.178624,0.342202,0.911479,-2.27393,-1.69336,0.031569,-3.02854,1.91621,1.83307,-4.2,1.5,0,10772,47.914,25.054,12004.4
286127591,0.634769,2.223,94.7787,0.144113,0.295218,0.903096,-2.60407,-1.82301,0.0618905,-2.57465,1.41304,1.38909,-4.2,1.5,0,10772,47.914,25.054,12004.4
286227946,0.634769,2.223,94.7881,0.113466,0.248639,0.896587,-2.85804,-1.93742,0.0540376,-2.15775,1.0742,0.549536,-4.2,1.5,0,10772,47.914,25.054,12004.4
286328334,0.634769,2.223,94.7949,0.0908503,0.211668,0.892981,-3.05793,-2.01891,0.052968,-1.6907,0.951569,0.270897,-4.2,1.5,0,10772,47.914,25.054,12004.4
286428679,0.634769,2.223,94.8066,0.0703968,0.181758,0.890274,-3.21611,-2.08585,0.0490867,-1.38217,0.737016,0.0592355,-4.2,1.5,0,10772,47.914,25.054,12004.4
286529071,0.634769,2.223,94.8117,0.0527797,0.154443,0.888015,-3.33116,-2.153,0.0375062,-1.06305,0.457349,0.130328,-4.2,1.5,0,10772,47.785,27.152,12974.6
286629444,0.634769,2.223,94.8185,0.0455049,0.132398,0.887262,-3.41567,-2.2058,0.0441087,-0.679484,0.294462,0.653259,-4.2,1.5,0,10772,47.785,27.152,12974.6
286729779,0.634769,2.223,94.8218,0.039753,0.116554,0.8861,-3.47797,-2.243,0.0420094,-0.559764,0.322318,-0.0217631,-4.2,1.5,0,10772,47.785,27.152,12974.6
286830138,0.634769,2.223,94.8247,0.0358723,0.106116,0.886316,-3.52771,-2.26915,0.0266145,-0.457046,0.246038,0.125154,-4.2,1.5,0,10772,47.785,27.152,12974.6
286930542,0.634769,2.223,94.8274,0.0375401,0.100729,0.885656,-3.53885,-2.292,0.0209039,-0.293353,0.0903203,-0.196045,-1.4,3.4,0,10772,47.785,27.152,12974.6
287030884,0.634769,2.223,94.8305,0.045561,0.0807088,0.887162,-3.57782,-2.30565,0.00123527,-0.380182,0.321756,0.0228668,-1.4,3.4,0,10772,47.785,27.152,12974.6
287131251,0.634769,2.223,94.8286,0.139822,-0.0904867,0.881182,-3.60533,-2.29943,0.0322126,0.185505,0.493321,0.516509,-1.4,3.4,0,10772,47.785,27.152,12974.6
287231628,0.634769,2.223,94.8293,0.226397,-0.231428,0.857337,-3.58246,-2.04264,0.0422967,2.25333,1.72867,0.469173,-1.4,3.4,0,10772,47.785,27.152,12974.6
287331992,0.634769,2.223,94.8237,0.282757,-0.305738,0.835272,-3.54222,-1.6376,-0.00406047,3.03029,2.30109,1.43109,-1.4,3.4,0,10772,47.785,27.152,12974.6
287432389,0.634769,2.223,94.8061,0.305725,-0.322646,0.824808,-3.47443,-1.13335,-0.0244032,3.7941,2.55613,2.18424,-1.4,3.4,0,10772,47.785,27.152,12974.6
287532744,0.634769,2.223,94.7809,0.276585,-0.277384,0.832693,-3.41928,-0.619843,-0.0335379,3.59511,2.59547,2.31743,-1.4,3.4,0,10772,47.814,25.869,12369
287633109,0.634769,2.223,94.7545,0.229504,-0.214884,0.844667,-3.37708,-0.187636,-0.0112939,3.01626,2.27909,1.70003,-1.4,3.4,0,10772,47.814,25.869,12369
287733469,0.634769,2.223,94.7381,0.187544,-0.153056,0.85666,-3.33592,0.155937,0.00699274,2.41028,1.78783,1.22929,-1.4,3.4,0,10772,47.814,25.869,12369
287833830,0.634768,2.223,94.7304,0.156969,-0.0981281,0.86648,-3.28862,0.470787,0.0160206,1.74116,1.25038,0.885689,-1.4,3.4,0,10772,47.814,25.869,12369
287934131,0.634768,2.223,94.7358,0.133073,-0.0487178,0.873794,-3.28033,0.657898,0.0431952,1.12747,1.06486,0.499783,-1.4,3.4,0,10772,47.814,25.869,12369
288034468,0.634768,2.223,94.7516,0.118411,-0.0128254,0.878395,-3.28789,0.789339,0.0402779,0.61628,0.942252,-0.340391,-1.4,3.4,0,10772,47.814,25.869,12369
288134749,0.634768,2.223,94.7651,0.109299,0.0108724,0.880993,-3.32022,0.893088,0.0436586,0.409648,0.891275,0.256161,-1.4,3.4,0,10772,47.814,25.869,12369
288235106,0.634768,2.223,94.7799,0.101424,0.0255402,0.882281,-3.34972,0.974517,0.0441249,0.209324,0.730372,-0.0606865,-1.4,3.4,0,10772,47.814,25.869,12369
288335446,0.634768,2.223,94.7997,0.0935747,0.0327834,0.882618,-3.38022,1.03647,0.05128,0.08355,0.606172,0.0273996,-1.4,3.4,0,10772,47.814,25.869,12369
288435783,0.634768,2.223,94.8167,0.0867977,0.0358713,0.882858,-3.41814,1.0873,0.0737569,0.0307113,0.593795,-0.259821,-1.4,3.4,0,10772,47.814,25.869,12369
288536112,0.634768,2.223,94.8337,0.0829073,0.0378628,0.883271,-3.43698,1.13578,0.0499102,0.177696,0.481568,-0.218837,-1.4,3.4,0,10772,47.693,29.519,14078.5
288636461,0.634768,2.223,94.8499,0.0760388,0.041817,0.883308,-3.47382,1.16534,0.0520445,-0.105563,0.492907,-0.206045,-1.4,3.4,0,10772,47.693,29.519,14078.5
288736809,0.634768,2.223,94.86,0.0716729,0.0451255,0.883878,-3.50689,1.19469,0.0254967,-0.0228544,0.485109,-0.299714,-1.4,3.4,0,10772,47.693,29.519,14078.5
288837171,0.634768,2.223,94.8658,0.066882,0.0478147,0.883956,-3.54061,1.21488,0.0122585,-0.0843704,0.444156,-0.100136,-1.4,3.4,0,10772,47.693,29.519,14078.5
288937592,0.634768,2.223,94.8638,0.0625303,0.0470579,0.883596,-3.56639,1.22497,0.018739,-0.0481635,0.29239,-0.134492,-4,-2.7,0,10772,47.693,29.519,14078.5
289037886,0.634768,2.223,94.8651,0.0384582,0.0520547,0.883779,-3.58767,1.24011,-0.00460412,0.00413103,0.376819,-0.064707,-4,-2.7,0,10772,47.693,29.519,14078.5
289138261,0.634768,2.223,94.8595,-0.140424,0.111042,0.870919,-3.5859,1.19354,0.0396964,-0.440105,-0.592087,0.386387,-4,-2.7,0,10772,47.693,29.519,14078.5
289238632,0.634768,2.223,94.8602,-0.282324,0.152544,0.858228,-3.4621,0.971476,0.00110302,-0.970737,-2.51414,0.317194,-4,-2.7,0,10772,47.693,29.519,14078.5
289339014,0.634768,2.223,94.8596,-0.377169,0.174823,0.848755,-3.25409,0.63833,-0.0250423,-1.11183,-3.51797,1.39178,-4,-2.7,0,10772,47.693,29.519,14078.5
289439418,0.634768,2.223,94.8614,-0.416943,0.180851,0.846471,-3.01247,0.21349,-0.0289146,-1.46597,-4.20886,1.67545,-4,-2.7,0,10772,47.693,29.519,14078.5
289539795,0.634768,2.223,94.8617,-0.429422,0.182079,0.846319,-2.74023,-0.211217,-0.0508531,-1.5729,-4.43005,1.6474,-4,-2.7,0,10772,47.71,26.928,12847.3
289640283,0.634768,2.223,94.8599,-0.42627,0.182442,0.848268,-2.47311,-0.644406,-0.0425122,-1.26494,-3.93379,2.71221,-4,-2.7,0,10772,47.71,26.928,12847.3
289740756,0.634768,2.223,94.8571,-0.418242,0.184979,0.848764,-2.20677,-1.08384,-0.0046534,-1.44057,-4.20003,2.17327,-4,-2.7,0,10772,47.71,26.928,12847.3
289841113,0.634768,2.223,94.8551,-0.400433,0.189602,0.849068,-1.95815,-1.48518,-0.0321991,-1.35507,-3.9868,1.5788,-4,-2.7,0,10772,47.71,26.928,12847.3
289941487,0.634767,2.223,94.8555,-0.382085,0.193173,0.848306,-1.7267,-1.88623,-0.0243186,-1.40358,-3.73701,1.76389,-4,-2.7,0,10772,47.71,26.928,12847.3
290041847,0.634767,2.223,94.8626,-0.363363,0.199005,0.847621,-1.52202,-2.26747,-0.00635244,-1.37034,-3.21015,1.96732,-4,-2.7,0,10772,47.71,26.928,12847.3
290142243,0.634767,2.223,94.8761,-0.344741,0.203888,0.84666,-1.34064,-2.62121,-0.00159253,-1.41467,-3.24078,1.14366,-4,-2.7,0,10772,47.71,26.928,12847.3
290242615,0.634767,2.223,94.8888,-0.329151,0.20809,0.846472,-1.17471,-2.96278,-0.00121175,-1.40906,-2.96362,1.34453,-4,-2.7,0,10772,47.71,26.928,12847.3
290342992,0.634767,2.223,94.901,-0.292113,0.197672,0.851435,-1.02257,-3.29718,0.0075953,-1.31929,-2.73354,1.56312,-4,-2.7,0,10772,47.71,26.928,12847.3
290443322,0.634767,2.223,94.9106,-0.243128,0.183464,0.856186,-0.893597,-3.58766,0.0180362,-1.33833,-2.3919,0.614889,-4,-2.7,0,10772,47.71,26.928,12847.3
290543702,0.634767,2.223,94.9215,-0.196236,0.164648,0.86105,-0.806326,-3.82687,0.0231481,-1.23572,-1.83231,1.01608,-4,-2.7,0,10772,47.868,24.732,11838.7
290644089,0.634767,2.223,94.9286,-0.15516,0.147216,0.864846,-0.754265,-3.99546,0.0233349,-1.06045,-1.23592,-0.572603,-4,-2.7,0,10772,47.868,24.732,11838.7
290744418,0.634767,2.223,94.9331,-0.12659,0.135059,0.867007,-0.724235,-4.11056,-0.0147699,-0.73819,-0.847728,0.519,-4,-2.7,0,10772,47.868,24.732,11838.7
290844841,0.634767,2.223,94.9331,-0.106901,0.122501,0.869321,-0.699175,-4.21279,0.000923498,-0.626142,-0.771357,0.175424,-4,-2.7,0,10772,47.868,24.732,11838.7
290945267,0.634767,2.223,94.9322,-0.0900551,0.111439,0.871061,-0.678179,-4.28879,-0.0134163,-0.514789,-0.539983,0.1701,6.34753,1.24051,0,10772,47.868,24.732,11838.7
291045598,0.634767,2.223,94.9275,-0.0698026,0.0829865,0.87587,-0.672559,-4.33501,-0.014041,-0.398383,-0.332457,0.0605779,6.50306,1.30144,0,10772,47.868,24.732,11838.7
291145993,0.634767,2.223,94.9229,0.0375211,-0.0764384,0.87904,-0.670953,-4.33253,0.029774,0.153597,0.181621,0.506677,6.62843,1.35214,0,10772,47.868,24.732,11838.7
291246357,0.634767,2.223,94.9261,0.137712,-0.216146,0.867003,-0.642023,-4.07194,0.0121748,2.32702,1.56725,-0.289552,6.60222,1.48365,0,10772,47.868,24.732,11838.7
291346710,0.634767,2.223,94.9203,0.199268,-0.308836,0.853662,-0.59775,-3.66003,-0.0557977,3.30198,2.19464,0.970979,6.52877,1.59581,0,10772,47.868,24.732,11838.7
291447052,0.634767,2.223,94.907,0.226162,-0.353289,0.847099,-0.546091,-3.14528,-0.0877477,3.90008,2.61456,1.75944,6.51913,1.67575,0,10772,47.868,24.732,11838.7
291547406,0.634767,2.223,94.8733,0.226434,-0.362039,0.849287,-0.488314,-2.60647,-0.106745,3.78624,2.56479,2.25691,6.57462,1.69016,0,10772,47.868,24.732,11838.7
291647810,0.634767,2.223,94.8244,0.206065,-0.344137,0.855597,-0.414546,-2.0768,-0.129303,4.11894,2.41745,1.77464,6.69385,1.69297,0,10727,47.767,27.949,13350.4
291748225,0.634767,2.223,94.7844,0.183128,-0.302731,0.863881,-0.339015,-1.55882,-0.116838,3.69425,2.17117,2.3486,6.83524,1.66249,0,10727,47.767,27.949,13350.4
291848493,0.634767,2.223,94.751,0.151513,-0.250435,0.871322,-0.282297,-1.10601,-0.0902796,3.19776,1.95503,1.88957,6.98032,1.64245,0,10727,47.767,27.949,13350.4
291948826,0.634767,2.223,94.7348,0.104384,-0.191388,0.87743,-0.23292,-0.719336,-0.0255588,2.6728,1.63959,1.52418,7.07707,1.59695,0,10727,47.767,27.949,13350.4
292049177,0.634767,2.223,94.7284,0.0649083,-0.144028,0.880473,-0.195486,-0.431055,0.0119006,1.99635,1.16169,0.758834,7.1333,1.57045,0,10727,47.767,27.949,13350.4
292149543,0.634767,2.223,94.7432,0.0611195,-0.193667,0.878666,-0.163357,-0.210614,0.0485233,1.60088,0.818991,0.77869,7.03732,1.53025,0,10727,47.767,27.949,13350.4
292249883,0.634767,2.223,94.7734,0.0691857,-0.274056,0.873456,-0.0846352,0.0670347,0.0582301,2.49014,0.945209,0.408441,6.87349,1.51001,0,10727,47.767,27.949,13350.4
292350235,0.634767,2.223,94.8006,0.0759697,-0.333799,0.869749,0.0445141,0.403853,0.0506734,3.05428,0.881931,1.22092,6.70285,1.4679,0,10727,47.767,27.949,13350.4
292450562,0.634767,2.223,94.8246,0.0772036,-0.366176,0.867981,0.204327,0.779912,0.0370399,3.56441,0.918422,1.28371,6.58758,1.43262,0,10727,47.767,27.949,13350.4
292550856,0.634767,2.223,94.8352,0.0737004,-0.380611,0.867827,0.373909,1.17355,0.0316964,3.68962,1.00035,1.42404,6.50022,1.38986,0,10727,47.767,27.949,13350.4
292651247,0.634767,2.223,94.8344,0.0679296,-0.385418,0.868517,0.554996,1.56898,0.0297575,3.70096,0.875506,1.77534,6.43367,1.35128,0,10727,47.832,25.874,12376.1
292751545,0.634767,2.223,94.8323,0.0601896,-0.38159,0.869665,0.73966,1.95061,0.0270749,3.78343,0.842611,1.30964,6.3749,1.31248,0,10727,47.832,25.874,12376.1
292851913,0.634767,2.223,94.8314,0.0501618,-0.375482,0.870975,0.919676,2.31365,0.0204438,3.60566,0.733083,1.37437,6.31304,1.27405,0,10727,47.832,25.874,12376.1
292952350,0.634767,2.223,94.8301,0.0426055,-0.371018,0.871543,1.10735,2.66312,0.0120347,3.51344,0.655664,1.34251,6.22844,1.2402,0,10727,47.832,25.874,12376.1
293052711,0.634767,2.223,94.8298,0.0376564,-0.365128,0.870543,1.34383,3.05946,0.0010467,3.43172,0.502804,1.32114,6.13517,1.2143,0,10727,47.832,25.874,12376.1
293153097,0.634767,2.223,94.8326,0.0299545,-0.360697,0.869721,1.54481,3.38356,0.0178964,3.34628,0.438204,1.61692,6.02035,1.18803,0,10727,47.832,25.874,12376.1
293253483,0.634767,2.223,94.8357,0.0217454,-0.357888,0.869968,1.74325,3.68223,0.0286001,3.24888,0.296181,1.28485,5.89445,1.1507,0,10727,47.832,25.874,12376.1
293353854,0.634767,2.223,94.8443,0.0149521,-0.356473,0.871733,1.95333,3.96478,0.0314488,3.22911,0.177888,1.04306,5.75502,1.10719,0,10727,47.832,25.874,12376.1
293455210,0.634767,2.223,94.8498,0.010343,-0.353568,0.873589,2.1494,4.23095,0.0191464,2.97182,0.257656,1.03995,5.61029,1.06122,0,10727,47.832,25.874,12376.1
293556047,0.634768,2.223,94.8555,0.00452604,-0.321677,0.875998,2.35869,4.49458,0.00986227,3.30322,0.0313647,0.4337,5.51036,1.0284,0,10727,47.832,25.874,12376.1
293656387,0.634768,2.223,94.8583,-0.0031231,-0.257258,0.877995,2.52753,4.7089,0.0312233,2.3674,0.0778675,1.23834,5.44071,1.00183,0,10727,47.824,26.532,12688.7
293756728,0.634768,2.223,94.8667,-0.00413605,-0.188917,0.879821,2.64554,4.85546,0.064714,1.75394,0.054484,0.306424,5.33802,0.976401,0,10727,47.824,26.532,12688.7
293857091,0.634768,2.223,94.8753,-0.00171775,-0.127223,0.881118,2.71374,4.94302,0.0676131,1.05567,0.0770103,0.0922551,5.1931,0.943846,0,10727,47.824,26.532,12688.7
293957515,0.634768,2.223,94.8924,-0.00284155,-0.0752551,0.882046,2.74002,4.9903,0.0532412,0.525729,0.137219,-0.182765,5.02224,0.913179,0,10727,47.824,26.532,12688.7
294057894,0.634768,2.223,94.9129,-0.00913339,-0.0279241,0.882129,2.73169,4.98692,0.0309347,-0.0573191,0.0587009,-0.0961106,4.83093,0.880273,0,10727,47.824,26.532,12688.7
294158263,0.634768,2.223,94.9282,-0.0158545,0.0123244,0.881435,2.69788,4.95224,0.0225688,-0.468958,0.0663164,-0.137189,4.64,0.851391,0,10727,47.824,26.532,12688.7
294258612,0.634768,2.223,94.9415,-0.0222177,0.043592,0.880206,2.65643,4.87205,0.00463742,-0.813107,-0.16873,0.0135426,4.44098,0.820477,0,10727,47.824,26.532,12688.7
294358952,0.634768,2.223,94.947,-0.0297076,0.068163,0.878644,2.59247,4.77165,0.000927553,-1.0602,-0.0876915,0.278797,4.25788,0.793941,0,10727,47.824,26.532,12688.7
294459316,0.634768,2.223,94.9457,-0.0346261,0.0833267,0.878268,2.51479,4.6482,-0.0170021,-1.31228,-0.15881,-0.171023,4.07288,0.760486,0,10727,47.824,26.532,12688.7
294559658,0.634768,2.223,94.9403,-0.038683,0.0934182,0.878208,2.44519,4.52015,-0.0300303,-1.22698,-0.231779,0.179288,3.91088,0.728641,0,10727,47.824,26.532,12688.7
294660055,0.634768,2.223,94.9326,-0.0400057,0.0974023,0.877418,2.35631,4.3728,-0.0369437,-1.51982,-0.217072,0.272048,3.74498,0.698218,0,10727,47.824,26.532,12688.7
294760410,0.634768,2.223,94.9277,-0.0422311,0.0972458,0.877139,2.2709,4.23473,-0.05714,-1.41238,-0.174001,0.0210593,3.60268,0.669549,0,10727,47.824,26.532,12688.7
294860708,0.634768,2.223,94.9206,-0.0453831,0.101232,0.87659,2.19265,4.08281,-0.0576369,-1.45174,-0.275835,0.327417,3.45251,0.640459,0,10727,47.824,26.532,12688.7
294961045,0.634768,2.223,94.9121,-0.046511,0.100907,0.875842,2.11738,3.93295,-0.070078,-1.42605,-0.343656,-0.096917,3.32299,0.615354,0,10727,47.824,26.532,12688.7
295061407,0.634768,2.223,94.9045,-0.0453048,0.100326,0.875832,2.04442,3.77752,-0.0444145,-1.47013,-0.392068,0.437504,3.18752,0.586935,0,10727,47.824,26.532,12688.7
295161723,0.634768,2.223,94.8954,-0.0430525,0.0980935,0.87519,1.9835,3.63259,-0.0371462,-1.32526,-0.376659,0.37387,3.0699,0.565692,0,10727,47.824,26.532,12688.7
295262099,0.634768,2.223,94.8885,-0.0398857,0.0944134,0.87652,1.91324,3.49473,-0.0292734,-1.29862,-0.297771,0.548941,2.94827,0.538206,0,10727,47.824,26.532,12688.7
295362406,0.634768,2.223,94.8885,-0.0390782,0.086164,0.876944,1.85194,3.36132,-0.0182207,-1.22488,-0.315418,0.207782,2.83966,0.518147,0,10727,47.824,26.532,12688.7
295462764,0.634768,2.223,94.8941,-0.0367461,0.0792534,0.878023,1.79443,3.23864,-0.0154849,-1.15953,-0.206947,0.193888,2.72613,0.494871,0,10727,47.824,26.532,12688.7
295563123,0.634768,2.223,94.901,-0.0345783,0.0723439,0.878698,1.74975,3.13257,-0.00316692,-0.920463,-0.236537,0.202742,2.62079,0.477033,0,10727,47.824,26.532,12688.7
295663478,0.634768,2.223,94.9059,-0.0319137,0.0692054,0.878477,1.71072,3.03728,-0.0100282,-0.866924,-0.212478,-0.0208721,2.51162,0.459977,0,10727,47.824,26.532,12688.7
295763861,0.634768,2.223,94.9099,-0.0284812,0.0700515,0.878166,1.66354,2.94683,-0.0237803,-0.94504,-0.150017,0.0370127,2.40571,0.445408,0,10727,47.679,27.743,13227.6
295864275,0.634768,2.223,94.9147,-0.0285815,0.0713416,0.878398,1.61037,2.85306,-0.0222208,-1.03487,-0.0881873,0.151655,2.29922,0.427986,0,10727,47.679,27.743,13227.6
295964668,0.634768,2.223,94.9128,-0.0298818,0.0727226,0.878582,1.56813,2.76596,-0.0233239,-0.912264,-0.153655,0.0416567,2.19355,0.413819,0,10727,47.679,27.743,13227.6
296065030,0.634768,2.223,94.9073,-0.0276527,0.0766613,0.878045,1.54199,2.67623,-0.0316996,-0.892684,-0.254639,0.224958,2.08928,0.400144,0,10727,47.679,27.743,13227.6
296165356,0.634768,2.223,94.8998,-0.0265055,0.0804203,0.878543,1.50147,2.58822,-0.02144,-0.934356,-0.177739,0.217422,1.98569,0.386101,0,10727,47.679,27.743,13227.6
296265732,0.634768,2.223,94.888,-0.0257008,0.0823377,0.878842,1.4671,2.49875,-0.032315,-0.886153,-0.266279,0.226529,1.88649,0.371685,0,10727,47.679,27.743,13227.6
296366089,0.634768,2.223,94.8769,-0.0210136,0.0849635,0.879294,1.42702,2.4007,-0.0295521,-0.965094,-0.228176,0.214336,1.7866,0.358137,0,10727,47.679,27.743,13227.6
296466448,0.634768,2.223,94.8687,-0.019242,0.0885108,0.879289,1.37643,2.31419,-0.0288285,-1.0223,-0.124761,0.260413,1.69154,0.345378,0,10727,47.679,27.743,13227.6
296566786,0.634768,2.223,94.863,-0.0188498,0.0907464,0.879682,1.33681,2.21692,0.00743883,-0.950308,-0.314829,0.38318,1.59632,0.3334,0,10727,47.679,27.743,13227.6
296667222,0.634769,2.223,94.8614,-0.0176065,0.0921243,0.88025,1.29619,2.12893,-0.0122205,-0.943515,-0.175587,0.0433308,1.50745,0.321265,0,10727,47.679,27.743,13227.6
296767671,0.634769,2.223,94.8577,-0.0160826,0.0893558,0.880287,1.24725,2.04336,-0.00675209,-0.990456,-0.136652,0.321374,1.41872,0.3124,0,10727,47.698,26.583,12679.6
296868122,0.634769,2.223,94.8559,-0.0129624,0.0912346,0.880624,1.20764,1.96093,-0.0138526,-1.03574,-0.137282,-0.104325,1.33555,0.302805,0,10727,47.698,26.583,12679.6
296968547,0.634769,2.223,94.8569,-0.0124675,0.0946631,0.880738,1.16031,1.88457,-0.0182199,-1.00459,-0.0561982,0.202492,1.25184,0.294678,0,10727,47.698,26.583,12679.6
297068921,0.634769,2.223,94.858,-0.0114866,0.0978517,0.880815,1.10924,1.79911,0.0105625,-1.07818,-0.193699,0.332218,1.17404,0.286093,0,10727,47.698,26.583,12679.6
297169306,0.634769,2.223,94.8611,-0.0101681,0.0969125,0.881251,1.05057,1.71741,-0.0028124,-1.10821,-0.0353419,-0.161088,1.09898,0.277556,0,10727,47.698,26.583,12679.6
297269666,0.634769,2.223,94.8567,-0.0112604,0.0963172,0.881326,1.00193,1.64284,-0.00244164,-0.979406,-0.0907101,0.298263,1.02976,0.269289,0,10727,47.698,26.583,12679.6
297369987,0.634769,2.223,94.8555,-0.0110374,0.0971374,0.881016,0.956708,1.56393,-0.0119405,-0.912588,-0.122415,0.473916,0.9604,0.260669,0,10727,47.698,26.583,12679.6
297470358,0.634769,2.223,94.8597,-0.0095896,0.0967535,0.881075,0.912812,1.49232,0.0168413,-0.939958,-0.0835204,-0.147876,0.832083,0.242591,0,10727,47.698,26.583,12679.6
297570723,0.634769,2.223,94.8562,-0.00997565,0.0997607,0.880934,0.864455,1.42188,-0.0251293,-0.973972,-0.029972,-0.0593878,0.773064,0.234065,0,10727,47.698,26.583,12679.6
297671123,0.634769,2.223,94.8587,-0.0138953,0.106906,0.88093,0.812619,1.35063,-0.00485629,-0.99751,-0.0245444,0.356653,0.715005,0.224913,0,10727,47.698,26.583,12679.6
297772405,0.634769,2.223,94.8632,-0.0158131,0.105819,0.881072,0.756278,1.26391,0.00616149,-1.08307,-0.128267,-0.00902308,0.66311,0.216531,0,10727,47.698,26.583,12679.6
297877600,0.634769,2.223,94.8613,-0.0162865,0.102371,0.881562,0.695405,1.17289,0.0017978,-0.964753,-0.0548758,0.107175,0.613678,0.208708,0,10727,47.698,26.583,12679.6
297978005,0.634769,2.223,94.8535,-0.0172544,0.09738,0.881716,0.65469,1.09543,0.00384001,-0.876863,-0.177651,0.0940032,0.569109,0.201855,0,10727,47.698,26.583,12679.6
298078375,0.634769,2.223,94.8466,-0.0157127,0.0929381,0.88199,0.616028,1.02782,-0.00409316,-0.878477,-0.105679,0.0455585,0.526093,0.194589,0,10727,47.698,26.583,12679.6
298178763,0.634769,2.223,94.8422,-0.0137601,0.0897335,0.882177,0.571546,0.96985,-0.00541874,-0.790759,-0.0225357,0.110796,0.487001,0.187637,0,10727,47.698,26.583,12679.6
298279121,0.634769,2.223,94.8366,-0.012279,0.0866954,0.881918,0.530837,0.909095,-0.00375814,-0.744149,-0.0434518,0.308423,0.450147,0.18091,0,10638,47.825,24.798,11859.6
298379421,0.634769,2.223,94.8279,-0.0122136,0.0849503,0.881941,0.492014,0.857472,0.00187236,-0.728082,-0.0132158,0.113655,0.416678,0.174558,0,10638,47.825,24.798,11859.6
298479703,0.634769,2.223,94.8185,-0.0120553,0.0825362,0.881638,0.44511,0.808778,-0.00374731,-0.779756,0.0764581,-0.0889455,0.383857,0.168727,0,10638,47.825,24.798,11859.6
298580090,0.634769,2.223,94.8165,-0.0124622,0.0793991,0.881444,0.405377,0.756068,0.0202302,-0.666516,-0.0497974,0.0439394,0.354225,0.162851,0,10638,47.825,24.798,11859.6
298680450,0.634769,2.223,94.8129,-0.0125376,0.0774171,0.881542,0.373131,0.709638,0.00150762,-0.619386,-0.0467283,-0.0797431,0.325302,0.157289,0,10638,47.825,24.798,11859.6
298780803,0.634769,2.223,94.812,-0.0123907,0.0771183,0.881349,0.349329,0.668283,0.00832378,-0.570774,-0.0772354,0.0534669,0.299271,0.151864,0,10638,47.825,24.798,11859.6
298881203,0.634769,2.223,94.816,-0.01186,0.0769759,0.881373,0.318714,0.620542,0.0209642,-0.655171,-0.00647669,0.196826,2.4,1.1,0,10638,47.825,24.798,11859.6
298981563,0.634769,2.223,94.823,-0.0137423,0.0619531,0.881408,0.275141,0.564301,0.0127247,-0.830342,-0.0240607,-0.185431,2.4,1.1,0,10638,47.825,24.798,11859.6
299081911,0.634769,2.223,94.8255,-0.0210048,0.0554987,0.88134,0.257602,0.533238,0.0263441,-0.3519,-0.11347,0.037979,2.4,1.1,0,10638,47.825,24.798,11859.6
299182214,0.634769,2.223,94.8261,-0.025707,0.061138,0.881219,0.239539,0.502601,0.0200535,-0.411526,-0.0860048,-0.274478,2.4,1.1,0,10638,47.825,24.798,11859.6
299282589,0.634769,2.223,94.8226,-0.0276342,0.0684141,0.881181,0.232919,0.460582,0.0152952,-0.452134,-0.205365,-0.0290057,2.4,1.1,0,10638,47.818,24.827,11871.8
299383839,0.634769,2.223,94.8171,-0.0276537,0.0742852,0.880972,0.212805,0.406643,0.00555522,-0.68134,-0.187561,-0.529681,2.4,1.1,0,10638,47.818,24.827,11871.8
299486033,0.634769,2.223,94.8136,-0.0265885,0.0769447,0.880918,0.182949,0.355294,-0.000340788,-0.628636,-0.0466747,0.345959,2.4,1.1,0,10638,47.818,24.827,11871.8
299586393,0.634769,2.223,94.8094,-0.0250955,0.0772464,0.881147,0.161349,0.301683,0.0294034,-0.606376,-0.202361,-0.039173,2.4,1.1,0,10638,47.818,24.827,11871.8
299686754,0.634769,2.223,94.8037,-0.0227257,0.0748218,0.881499,0.128329,0.252975,0.00808157,-0.61579,-0.0151107,-0.00629731,2.4,1.1,0,10638,47.818,24.827,11871.8
299787103,0.634769,2.223,94.802,-0.0216166,0.0695793,0.881415,0.107325,0.212323,0.00729141,-0.502753,-0.0775096,0.257686,2.4,1.1,0,10638,47.818,24.827,11871.8
299887460,0.634769,2.223,94.7997,-0.0204206,0.0643334,0.881403,0.0980553,0.161111,0.0240682,-0.507628,-0.164585,-0.294057,2.4,1.1,0,10638,47.818,24.827,11871.8
299987821,0.634769,2.223,94.7934,-0.0159157,0.0567537,0.882697,0.0798003,0.130087,0.0157668,-0.444738,-0.0305953,0.144706,2.4,1.1,0,10638,47.818,24.827,11871.8
300088229,0.634769,2.223,94.7945,0.053422,-0.0978941,0.881659,0.0499157,0.0939589,0.045104,-0.441528,0.0325727,0.549855,2.4,1.1,0,10638,47.818,24.827,11871.8
300188629,0.634769,2.223,94.7959,0.133128,-0.268206,0.864148,0.0913275,0.288913,0.0499815,1.96812,1.02753,-0.0339944,2.4,1.1,0,10638,47.818,24.827,11871.8
300288936,0.634769,2.223,94.7868,0.168336,-0.339044,0.852032,0.180297,0.63381,-0.0248341,3.09657,1.53229,1.12941,2.4,1.1,0,10638,47.807,24.575,11748.6
300389296,0.634769,2.223,94.7702,0.163743,-0.334248,0.852248,0.29944,1.0673,-0.0138861,3.5008,1.69846,1.9256,2.4,1.1,0,10638,47.807,24.575,11748.6
300489659,0.634769,2.223,94.7509,0.13652,-0.281503,0.85997,0.409204,1.47627,0.0149685,3.287,1.58394,1.64746,2.4,1.1,0,10638,47.807,24.575,11748.6
300589994,0.634769,2.223,94.7292,0.10592,-0.217231,0.868077,0.47827,1.79021,0.00393017,2.54289,1.41208,0.690537,2.4,1.1,0,10638,47.807,24.575,11748.6
300690293,0.634769,2.223,94.7239,0.0786513,-0.164263,0.873366,0.550841,2.07296,0.043082,1.86866,0.98659,0.653265,2.4,1.1,0,10638,47.807,24.575,11748.6
300790637,0.634769,2.223,94.7335,0.0581975,-0.119521,0.877305,0.598917,2.24426,0.0515349,1.34013,0.632089,0.250501,2.4,1.1,0,10638,47.807,24.575,11748.6
300891032,0.634769,2.223,94.7408,0.0422795,-0.0824605,0.879262,0.632644,2.36309,0.0591595,0.872708,0.421539,0.0870711,-3,1.7,0,10638,47.807,24.575,11748.6
300991370,0.634769,2.223,94.7474,0.0329452,-0.0375338,0.880675,0.658194,2.45274,0.0699317,0.69184,0.291012,0.573168,-3,1.7,0,10638,47.807,24.575,11748.6
301091736,0.634769,2.223,94.764,0.0335333,0.169534,0.883787,0.629852,2.48785,0.12167,-0.653486,0.352225,0.103453,-3,1.7,0,10638,47.807,24.575,11748.6
301192088,0.634769,2.223,94.791,0.0415209,0.322669,0.888289,0.441328,2.32813,0.0586862,-2.70064,0.417851,0.148974,-3,1.7,0,10638,47.807,24.575,11748.6
301293216,0.634769,2.223,94.8204,0.0496431,0.414538,0.892966,0.174694,2.07749,0.0265248,-3.67624,0.460559,1.19603,-3,1.7,0,10638,47.822,24.639,11782.9
301393565,0.634769,2.223,94.8478,0.0525636,0.4534,0.895961,-0.148096,1.752,0.0303234,-4.32167,0.366036,1.74089,-3,1.7,0,10638,47.822,24.639,11782.9
301493924,0.634769,2.223,94.8614,0.0482932,0.453159,0.897018,-0.498112,1.41037,0.0249032,-4.57721,0.435233,1.85917,-3,1.7,0,10638,47.822,24.639,11782.9
301594249,0.634769,2.223,94.8629,0.0417977,0.440443,0.896928,-0.837767,1.08638,0.0214247,-4.2601,0.478622,1.70278,-3,1.7,0,10638,47.822,24.639,11782.9
301694621,0.634769,2.223,94.8695,0.0411948,0.426386,0.896395,-1.14563,0.760194,0.0214576,-4.10726,0.294341,1.67107,-3,1.7,0,10638,47.822,24.639,11782.9
301794947,0.634769,2.223,94.8794,0.0469086,0.415022,0.896042,-1.43381,0.4533,0.0213037,-3.73569,0.258642,1.56563,-3,1.7,0,10638,47.822,24.639,11782.9
301895320,0.634769,2.223,94.8835,0.0548049,0.405979,0.896063,-1.72723,0.162324,0.0134321,-3.79651,0.46989,1.36676,-3,1.7,0,10638,47.822,24.639,11782.9
301995695,0.634769,2.223,94.8726,0.0567849,0.385248,0.895259,-2.01942,-0.115173,-0.00177055,-3.59966,0.473817,1.23955,-3,1.7,0,10638,47.822,24.639,11782.9
302096058,0.634769,2.223,94.8549,0.0517003,0.337484,0.89298,-2.28567,-0.374965,-0.0108389,-3.14274,0.412006,1.46778,-3,1.7,0,10638,47.822,24.639,11782.9
302196445,0.634769,2.223,94.8362,0.045065,0.286338,0.891104,-2.50656,-0.596936,0.00175356,-2.71364,0.324877,0.907479,-3,1.7,0,10638,47.822,24.639,11782.9
302296857,0.634769,2.223,94.8184,0.0401284,0.238243,0.889141,-2.68072,-0.765878,-0.0121734,-2.13012,0.325492,0.262368,-3,1.7,0,10638,47.749,26.423,12616.7
302397196,0.634769,2.223,94.8039,0.0354798,0.1973,0.888229,-2.80994,-0.90041,-0.00542438,-1.56523,0.223042,0.640408,-3,1.7,0,10638,47.749,26.423,12616.7
302497825,0.634769,2.223,94.7944,0.0337958,0.166262,0.887176,-2.91146,-1.00916,0.00124169,-1.22705,0.188596,0.374597,-3,1.7,0,10638,47.749,26.423,12616.7
302599889,0.634769,2.223,94.7967,0.0317864,0.141092,0.886835,-2.99411,-1.09621,0.0207259,-1.01518,0.175857,0.125762,-3,1.7,0,10638,47.749,26.423,12616.7
302700327,0.634768,2.223,94.7993,0.0312137,0.120797,0.886416,-3.0611,-1.16193,-0.00867647,-0.946635,0.233986,-0.0110209,-3,1.7,0,10638,47.749,26.423,12616.7
302800700,0.634768,2.223,94.7998,0.0284687,0.102399,0.88587,-3.10431,-1.20355,0.0134337,-0.494498,0.0926999,0.503784,-3,1.7,0,10638,47.749,26.423,12616.7
302901201,0.634768,2.223,94.8096,0.0266119,0.0922554,0.885672,-3.13201,-1.23203,0.0248489,-0.377252,0.120635,-0.0993591,4.5,4.8,0,10638,47.749,26.423,12616.7
303001622,0.634768,2.223,94.8311,0.0343379,0.061487,0.887236,-3.15605,-1.25843,0.0281932,-0.487581,0.108766,0.187904,4.5,4.8,0,10638,47.749,26.423,12616.7
303102011,0.634768,2.223,94.8531,0.0926748,-0.14682,0.879431,-3.16474,-1.2337,0.0869268,0.571861,0.377839,0.14713,4.5,4.8,0,10638,47.749,26.423,12616.7
303202316,0.634768,2.223,94.8781,0.145205,-0.314052,0.85912,-3.04407,-0.949393,0.0576196,3.02679,1.02692,0.0782444,4.5,4.8,0,10638,47.749,26.423,12616.7
303302634,0.634768,2.223,94.885,0.179326,-0.409233,0.840058,-2.86691,-0.532322,-0.0170386,4.09038,1.34073,1.4777,4.5,4.8,0,10638,47.749,26.423,12616.7
303403006,0.634768,2.223,94.8738,0.191493,-0.445242,0.828929,-2.65095,-0.00223863,-0.0379277,4.53735,1.49253,2.58459,4.5,4.8,0,10638,47.706,27.03,12894.9
303503389,0.634768,2.223,94.8548,0.182216,-0.435632,0.827225,-2.42032,0.535097,-0.0500429,4.63968,1.48183,2.68664,4.5,4.8,0,10638,47.706,27.03,12894.9
303603751,0.634768,2.223,94.8327,0.176709,-0.423531,0.827203,-2.18894,1.04123,-0.0504325,4.50675,1.34974,2.54323,4.5,4.8,0,10638,47.706,27.03,12894.9
303704109,0.634768,2.223,94.8162,0.179348,-0.413196,0.829425,-1.96046,1.54171,-0.0464233,4.39188,1.26013,2.54518,4.5,4.8,0,10638,47.706,27.03,12894.9
303804440,0.634768,2.223,94.7996,0.185477,-0.397783,0.83152,-1.76727,2.0416,-0.0516178,4.0576,1.4831,2.58025,4.5,4.8,0,10638,47.706,27.03,12894.9
303904802,0.634768,2.223,94.7952,0.197655,-0.379863,0.832893,-1.57203,2.53274,-0.0201319,4.06293,1.44189,2.26531,4.5,4.8,0,10638,47.706,27.03,12894.9
304005112,0.634768,2.223,94.7966,0.213702,-0.361475,0.834339,-1.40968,3.02025,-0.0286029,3.85467,1.59015,2.25404,4.5,4.8,0,10638,47.706,27.03,12894.9
304105516,0.634768,2.223,94.8055,0.228956,-0.346673,0.835627,-1.28249,3.48787,0.00165813,3.56547,1.70411,2.04785,4.5,4.8,0,10638,47.706,27.03,12894.9
304205870,0.634768,2.223,94.8195,0.243441,-0.329044,0.83862,-1.19493,3.91674,-0.000363398,3.31849,1.84748,1.34043,4.5,4.8,0,10638,47.706,27.03,12894.9
304310595,0.634768,2.223,94.8373,0.251691,-0.309292,0.843011,-1.10776,4.42759,0.0168138,3.22032,1.91817,1.23032,4.5,4.8,0,10638,47.706,27.03,12894.9
304412497,0.634768,2.223,94.8603,0.247205,-0.277913,0.85054,-1.06982,4.82127,0.0120393,2.81993,1.98199,1.29645,4.5,4.8,0,10638,47.69,26.065,12430.4
304512897,0.634768,2.223,94.8839,0.226625,-0.233602,0.86053,-1.06254,5.17038,0.0158929,2.34093,1.90182,0.784879,4.5,4.8,0,10638,47.69,26.065,12430.4
304614489,0.634768,2.223,94.9165,0.198828,-0.195225,0.868034,-1.07205,5.42411,0.027637,1.75186,1.5145,0.714284,4.5,4.8,0,10638,47.69,26.065,12430.4
304717324,0.634768,2.223,94.9437,0.171149,-0.16447,0.873002,-1.05634,5.67479,0.0346267,1.74208,1.25905,0.288586,4.5,4.8,0,10638,47.69,26.065,12430.4
304817718,0.634768,2.223,94.9661,0.146106,-0.138226,0.876506,-1.06886,5.85448,0.0206496,1.26437,1.11692,-0.0983199,4.5,4.8,0,10638,47.69,26.065,12430.4
304918112,0.634768,2.223,94.9831,0.121822,-0.120476,0.878745,-1.0821,5.99703,0.0141463,0.987736,0.850987,-0.00853449,-2.3,4.4,0,10638,47.69,26.065,12430.4
305018496,0.634768,2.223,95.0017,0.0952776,-0.0766655,0.878926,-1.07747,6.11111,-0.00279868,0.986327,0.509531,0.467588,-2.3,4.4,0,10638,47.69,26.065,12430.4
305118828,0.634768,2.223,95.0143,0.0342746,0.155891,0.881707,-1.10195,6.16362,0.0773578,-0.203888,0.247233,0.28744,-2.3,4.4,0,10638,47.69,26.065,12430.4
305219175,0.634768,2.223,95.0207,-0.00161888,0.335044,0.880916,-1.26514,5.91874,0.0270042,-3.06176,-0.438835,-0.0021894,-2.3,4.4,0,10638,47.69,26.065,12430.4
305319548,0.634768,2.223,95.0299,-0.0110261,0.437093,0.881115,-1.50286,5.56171,-0.0222307,-4.0175,-0.497805,1.52494,-2.3,4.4,0,10638,47.69,26.065,12430.4
305419919,0.634768,2.223,95.0441,-0.0160368,0.47968,0.883834,-1.81347,5.13935,-0.0301495,-4.52065,-0.230075,2.29569,-2.3,4.4,0,10638,47.633,29.783,14186.5
305520324,0.634768,2.223,95.0507,-0.0203457,0.489368,0.88672,-2.09425,4.70618,-0.0816031,-4.52578,-0.53257,2.11316,-2.3,4.4,0,10638,47.633,29.783,14186.5
305620727,0.634768,2.223,95.039,-0.0211699,0.481942,0.888653,-2.40175,4.25269,-0.0603217,-4.63638,-0.536178,2.12296,-2.3,4.4,0,10638,47.633,29.783,14186.5
305721098,0.634768,2.223,95.0304,-0.0154757,0.468446,0.89094,-2.69027,3.80387,-0.0995298,-4.76099,-0.582369,2.13882,-2.3,4.4,0,10638,47.633,29.783,14186.5
305821467,0.634768,2.223,95.0294,-0.00288772,0.449283,0.893194,-2.96514,3.38693,-0.107627,-4.17967,-0.412238,2.06918,-2.3,4.4,0,10638,47.633,29.783,14186.5
305921810,0.634768,2.223,95.0288,0.0166131,0.425582,0.896157,-3.23276,2.99365,-0.097157,-3.99103,-0.372531,1.74249,-2.3,4.4,0,10638,47.633,29.783,14186.5
306023334,0.634768,2.223,95.0219,0.0394886,0.407919,0.897655,-3.49525,2.64633,-0.10587,-3.71376,-0.171521,1.54999,-2.3,4.4,0,10638,47.633,29.783,14186.5
306123779,0.634767,2.223,95.014,0.0507569,0.375201,0.89605,-3.75108,2.32976,-0.115322,-3.47503,0.0201506,1.62293,-2.3,4.4,0,10638,47.633,29.783,14186.5
306224225,0.634767,2.223,95.0029,0.0602186,0.328927,0.894545,-3.99533,2.02758,-0.126352,-3.74897,0.146121,0.255623,-2.3,4.4,0,10638,47.633,29.783,14186.5
306324606,0.634767,2.223,94.9886,0.0671197,0.273416,0.89186,-4.21859,1.77731,-0.0810194,-2.60824,0.167292,1.65207,-2.3,4.4,0,10638,47.633,29.783,14186.5
306424971,0.634767,2.223,94.9828,0.0742699,0.224743,0.889547,-4.38908,1.59763,-0.0533376,-2.03737,0.272096,0.518971,-2.3,4.4,0,10638,47.582,29.441,14008.6
306525353,0.634767,2.223,94.9744,0.0793066,0.186517,0.886871,-4.51988,1.45483,-0.0494656,-1.65871,0.231752,0.310156,-2.3,4.4,0,10638,47.582,29.441,14008.6
306625739,0.634767,2.223,94.9648,0.084171,0.155162,0.885137,-4.63555,1.34533,-0.0546274,-1.25029,0.313259,0.408547,-2.3,4.4,0,10638,47.582,29.441,14008.6
306726949,0.634767,2.223,94.9604,0.0838544,0.135542,0.88432,-4.72072,1.28187,-0.0395756,-0.857432,0.386778,0.280852,-2.3,4.4,0,10638,47.582,29.441,14008.6
306829862,0.634767,2.223,94.9596,0.080197,0.12157,0.88383,-4.80158,1.21671,-0.0531105,-0.70295,0.311693,0.0834368,-2.3,4.4,0,10638,47.582,29.441,14008.6
306930302,0.634767,2.223,94.9579,0.0773069,0.108301,0.883748,-4.85894,1.17527,-0.0457786,-0.661025,0.304669,0.132746,-3.1,4.4,0,10638,47.582,29.441,14008.6
307030692,0.634767,2.223,94.9544,0.07199,0.113565,0.883531,-4.89532,1.1525,-0.0200056,-0.255925,0.202473,0.901434,-3.1,4.4,0,10638,47.582,29.441,14008.6
307131025,0.634767,2.223,94.9541,0.0583948,0.16075,0.88376,-4.94165,1.10134,-0.0200494,-1.01561,0.127722,-0.487181,-3.1,4.4,0,10638,47.582,29.441,14008.6
307231320,0.634767,2.223,94.9507,0.055674,0.19552,0.885549,-5.00655,1.01575,-0.0668553,-1.19679,0.0548703,0.325248,-3.1,4.4,0,10638,47.582,29.441,14008.6
307331687,0.634767,2.223,94.9439,0.0591506,0.210444,0.886853,-5.08985,0.908033,-0.0651089,-1.56557,0.0267577,0.139046,-3.1,4.4,0,10638,47.582,29.441,14008.6
307432068,0.634767,2.223,94.9447,0.0640751,0.205282,0.886969,-5.18369,0.80606,-0.0651713,-1.51906,0.143953,0.222994,-3.1,4.4,0,10593,47.691,25.95,12375.8
307532432,0.634766,2.223,94.9492,0.0683448,0.1898,0.88684,-5.26835,0.723581,-0.0602584,-1.22584,0.196197,0.0990386,-3.1,4.4,0,10593,47.691,25.95,12375.8
307632789,0.634766,2.223,94.9591,0.0674611,0.174697,0.885889,-5.3513,0.655862,-0.0475364,-1.18295,0.235187,0.342902,-3.1,4.4,0,10593,47.691,25.95,12375.8
307733143,0.634766,2.223,94.9735,0.0608674,0.157931,0.885475,-5.41421,0.592908,-0.0280686,-1.06245,0.103395,0.0284869,-3.1,4.4,0,10593,47.691,25.95,12375.8
307833444,0.634766,2.223,94.9871,0.0574175,0.142025,0.884793,-5.4691,0.534518,-0.0276299,-0.922058,0.104668,-0.0596569,-3.1,4.4,0,10593,47.691,25.95,12375.8
307933783,0.634766,2.223,94.993,0.058539,0.129375,0.884548,-5.51663,0.488302,-0.0166051,-0.782296,0.136409,0.186708,-3.1,4.4,0,10593,47.691,25.95,12375.8
308035433,0.634766,2.223,94.9978,0.0566283,0.118299,0.88439,-5.55113,0.453294,-0.0232749,-0.576845,0.0488839,0.340314,-3.1,4.4,0,10593,47.691,25.95,12375.8
308136731,0.634766,2.223,94.999,0.0553676,0.109641,0.884057,-5.57464,0.42284,-0.0333824,-0.556265,0.0448771,-0.379271,-3.1,4.4,0,10593,47.691,25.95,12375.8
308237097,0.634766,2.223,94.993,0.0535662,0.10151,0.884132,-5.6042,0.398564,-0.036805,-0.486121,0.107578,0.133594,-3.1,4.4,0,10593,47.691,25.95,12375.8
308337483,0.634766,2.223,94.9908,0.0515161,0.0950861,0.883531,-5.61503,0.37965,-0.0485633,-0.34743,-0.0209269,0.0143019,-3.1,4.4,0,10593,47.691,25.95,12375.8
308437862,0.634766,2.223,94.9866,0.0526692,0.0896884,0.883779,-5.62578,0.366079,-0.0597814,-0.294818,0.0885743,-0.117862,-3.1,4.4,0,10593,47.728,26.087,12450.8
308538225,0.634766,2.223,94.9781,0.0505549,0.0878656,0.883686,-5.6333,0.36063,-0.0685919,-0.145558,0.131422,-0.31463,-3.1,4.4,0,10593,47.728,26.087,12450.8
308639621,0.634766,2.223,94.9632,0.0472909,0.0871001,0.883929,-5.63152,0.35588,-0.0663873,-0.068014,-0.0683878,1.28201,-3.1,4.4,0,10593,47.728,26.087,12450.8
308743816,0.634765,2.223,94.9461,0.0436781,0.0853327,0.883211,-5.6261,0.33904,-0.0645168,-0.269218,-0.0929768,-0.227365,-3.1,4.4,0,10593,47.728,26.087,12450.8
308844240,0.634765,2.223,94.9313,0.0445947,0.0802633,0.88323,-5.62158,0.331738,-0.0974386,-0.121292,-0.0303698,-0.877335,-3.1,4.4,0,10593,47.728,26.087,12450.8
308944617,0.634765,2.223,94.9195,0.0403213,0.0750998,0.883471,-5.62046,0.325358,-0.0592088,-0.134937,-0.0705049,0.547318,1.10016,-9.30054,0,10593,47.728,26.087,12450.8
309044969,0.634765,2.223,94.9129,0.0280094,0.0667645,0.882885,-5.61066,0.311997,-0.00884721,0.00844142,-0.228485,0.775104,1.21614,-9.46107,0,10593,47.728,26.087,12450.8
309145349,0.634765,2.223,94.9102,-0.119014,-0.0396827,0.882516,-5.59734,0.29939,0.0427082,0.0381077,-0.434644,-0.166216,1.32888,-9.6291,0,10593,47.728,26.087,12450.8
309245718,0.634765,2.223,94.9145,-0.254297,-0.127015,0.897819,-5.329,0.271771,0.0449808,1.39221,-2.21348,0.796661,1.27971,-9.73351,0,10593,47.728,26.087,12450.8
309346099,0.634765,2.223,94.9264,-0.335238,-0.184944,0.91414,-4.9296,0.227602,0.0233939,2.08258,-3.19501,1.39471,1.20899,-9.81283,0,10593,47.728,26.087,12450.8
309446462,0.634765,2.223,94.9403,-0.374102,-0.213295,0.924349,-4.46199,0.192527,0.0135131,2.43753,-3.50686,1.73466,1.19495,-9.90703,0,10593,47.728,26.087,12450.8
309546807,0.634765,2.223,94.9424,-0.391914,-0.233114,0.932434,-3.97349,0.144635,-0.0424228,2.59796,-3.84013,1.4254,1.18717,-9.9891,0,10593,47.759,24.497,11699.5
309647143,0.634765,2.223,94.9239,-0.405405,-0.249859,0.940146,-3.35274,0.0979304,-0.0824028,2.6981,-3.93906,1.93778,1.17526,-10.0617,0,10593,47.759,24.497,11699.5
309747489,0.634765,2.223,94.9089,-0.398579,-0.258422,0.944941,-2.82219,0.0668422,-0.112034,2.7329,-3.68534,2.66725,1.1772,-10.1249,0,10593,47.759,24.497,11699.5
309848372,0.634765,2.223,94.8929,-0.380194,-0.253819,0.941934,-2.2897,0.0548148,-0.135718,2.88776,-3.73792,2.01458,1.2472,-10.2036,0,10593,47.759,24.497,11699.5
309948849,0.634765,2.223,94.8654,-0.353163,-0.229823,0.930006,-1.77343,0.0413426,-0.158977,2.74178,-3.62072,1.98936,1.41281,-10.2894,0,10593,47.759,24.497,11699.5
310049217,0.634765,2.223,94.8314,-0.320762,-0.17586,0.910832,-1.28438,0.0260715,-0.133906,2.52954,-3.29937,1.93671,1.6503,-10.4087,0,10593,47.759,24.497,11699.5
310149593,0.634765,2.223,94.8037,-0.355156,-0.114166,0.899328,-0.866683,-0.0398992,-0.0959989,1.78032,-3.30507,1.46174,1.78576,-10.4883,0,10593,47.759,24.497,11699.5
310249970,0.634765,2.223,94.792,-0.382558,-0.0753145,0.891373,-0.450329,-0.189788,-0.0786558,1.18406,-3.50343,2.00861,1.87662,-10.5154,0,10593,47.759,24.497,11699.5
310350338,0.634765,2.223,94.7941,-0.39721,-0.0650251,0.891838,-0.0219715,-0.369991,-0.0211408,1.08236,-3.7992,1.94032,1.85726,-10.5023,0,10593,47.759,24.497,11699.5
310450691,0.634765,2.223,94.8143,-0.396122,-0.0565801,0.890949,0.383096,-0.551336,0.0088948,0.933237,-3.73662,1.72904,1.85698,-10.4801,0,10593,47.759,24.497,11699.5
310551770,0.634765,2.223,94.838,-0.386954,-0.0510834,0.889263,0.762073,-0.733026,0.0292569,0.782403,-3.75937,1.3444,1.85468,-10.4315,0,10593,47.816,22.948,10972.8
310658118,0.634765,2.223,94.8697,-0.372063,-0.0458929,0.886979,1.11824,-0.891657,0.0511546,0.843637,-3.39309,1.51579,1.86309,-10.3757,0,10593,47.816,22.948,10972.8
310758495,0.634765,2.223,94.8954,-0.358967,-0.0425458,0.885271,1.44051,-1.04484,0.0519174,0.733582,-3.24815,1.0472,1.86136,-10.3004,0,10593,47.816,22.948,10972.8
310858887,0.634765,2.223,94.9231,-0.347458,-0.0403301,0.884442,1.75011,-1.19445,0.0507543,0.687927,-3.12353,0.958257,1.85253,-10.2203,0,10593,47.816,22.948,10972.8
310959334,0.634765,2.223,94.9439,-0.339095,-0.0379319,0.883584,2.03296,-1.33404,0.041345,0.6465,-2.8843,0.761453,1.84574,-10.1269,0,10593,47.816,22.948,10972.8
311059686,0.634765,2.223,94.9558,-0.335014,-0.037086,0.883322,2.30086,-1.46935,0.0180277,0.569673,-2.81808,0.710198,1.8319,-10.0277,0,10593,47.816,22.948,10972.8
311160068,0.634765,2.223,94.9548,-0.333058,-0.0382605,0.884159,2.56433,-1.59996,-0.00308461,0.589319,-2.73287,0.773322,1.80976,-9.92153,0,10593,47.816,22.948,10972.8
311260437,0.634765,2.223,94.9486,-0.33059,-0.0396584,0.885056,2.82751,-1.72741,-0.0159781,0.649447,-2.72266,0.865254,1.78339,-9.8073,0,10593,47.816,22.948,10972.8
311360808,0.634765,2.223,94.9338,-0.33069,-0.0396243,0.885208,3.08876,-1.84499,-0.0228203,0.666561,-2.64291,0.84553,1.76745,-9.68748,0,10593,47.816,22.948,10972.8
311461172,0.634765,2.223,94.9204,-0.331666,-0.0396307,0.885505,3.33691,-1.95939,-0.0506268,0.675731,-2.57195,1.00452,1.74483,-9.55739,0,10593,47.816,22.948,10972.8
311561521,0.634765,2.223,94.8994,-0.331729,-0.0415825,0.886634,3.59769,-2.08855,-0.0496943,0.594387,-2.79296,0.857081,1.71604,-9.42449,0,10593,47.819,22.21,10620.6
311661888,0.634765,2.223,94.8806,-0.332097,-0.0436121,0.887435,3.8313,-2.21072,-0.0381729,0.557416,-2.63103,0.757473,1.68508,-9.2784,0,10593,47.819,22.21,10620.6
311762322,0.634765,2.223,94.8626,-0.333277,-0.0424935,0.886645,4.07683,-2.32871,-0.0367151,0.587644,-2.57749,1.00288,1.67063,-9.1272,0,10593,47.819,22.21,10620.6
311862782,0.634765,2.223,94.8493,-0.333518,-0.0414892,0.886152,4.31069,-2.45001,-0.0409921,0.52297,-2.48562,1.02832,1.64838,-8.96336,0,10593,47.819,22.21,10620.6
311965245,0.634765,2.223,94.8356,-0.331419,-0.0402425,0.88552,4.54539,-2.5688,-0.0291344,0.52011,-2.39233,1.20033,1.6274,-8.79573,0,10593,47.819,22.21,10620.6
312066575,0.634765,2.223,94.8362,-0.330719,-0.0390933,0.884649,4.77558,-2.67507,-0.035966,0.653197,-2.60897,0.126118,1.57134,-8.43351,0,10593,47.819,22.21,10620.6
312166992,0.634766,2.223,94.8392,-0.329771,-0.0379669,0.884227,4.99485,-2.79099,-0.0159712,0.432446,-2.33831,1.01376,1.53875,-8.23996,0,10593,47.819,22.21,10620.6
312267362,0.634766,2.223,94.8477,-0.331765,-0.0330811,0.883898,5.22087,-2.90869,0.00822822,0.505622,-2.46237,0.862794,1.50355,-8.04195,0,10593,47.819,22.21,10620.6
312367701,0.634766,2.223,94.8502,-0.335724,-0.0289147,0.883311,5.43057,-3.02717,0.00990886,0.321318,-2.31261,0.828706,1.4679,-7.829,0,10593,47.819,22.21,10620.6
312468073,0.634766,2.223,94.853,-0.338016,-0.0259879,0.882078,5.69863,-3.18333,0.0138063,0.37401,-2.6147,0.672036,1.43541,-7.60882,0,10593,47.819,22.21,10620.6
312568451,0.634766,2.223,94.8575,-0.319958,-0.0190566,0.879688,5.85395,-3.27663,-0.00372417,0.284101,-2.31941,0.229725,1.4098,-7.37581,0,10548,47.742,27.044,12911.3
312668872,0.634766,2.223,94.8606,-0.274011,-0.00886707,0.877386,6.06581,-3.42707,0.0260838,0.18019,-1.97526,0.90766,1.38119,-7.14108,0,10548,47.742,27.044,12911.3
312769190,0.634766,2.223,94.8633,-0.213542,-0.00127635,0.876201,6.19687,-3.51642,0.0582392,0.113522,-1.49166,0.298931,1.34333,-6.89811,0,10548,47.742,27.044,12911.3
312869549,0.634766,2.223,94.8654,-0.155794,0.00312178,0.876832,6.26412,-3.55886,0.0552817,0.0823686,-0.790545,0.118312,1.2928,-6.65721,0,10548,47.742,27.044,12911.3
312969969,0.634766,2.223,94.8671,-0.095211,0.00918699,0.877548,6.30179,-3.56468,0.0541109,0.167094,-0.389889,-0.186412,1.24199,-6.41002,0,10548,47.742,27.044,12911.3
313070359,0.634766,2.223,94.8697,-0.0457746,0.0164782,0.877708,6.29206,-3.54289,0.0436273,0.0523406,0.172005,-0.0996173,1.19351,-6.16718,0,10548,47.742,27.044,12911.3
313170718,0.634766,2.223,94.8711,-0.000562141,0.0269681,0.877814,6.23422,-3.49027,0.0397334,-0.0116016,0.654219,0.0679381,1.1451,-5.92128,0,10548,47.742,27.044,12911.3
313271078,0.634767,2.223,94.87,0.0332553,0.037845,0.878351,6.13622,-3.43015,0.0208593,-0.238127,0.971933,-0.215981,1.09462,-5.68744,0,10548,47.742,27.044,12911.3
313371486,0.634767,2.223,94.8615,0.0615345,0.0449257,0.878691,6.01626,-3.35643,0.00591796,-0.258294,1.2569,-0.0155781,1.04681,-5.45337,0,10548,47.742,27.044,12911.3
313471849,0.634767,2.223,94.8528,0.0862808,0.0508368,0.879437,5.86519,-3.27477,0.00200105,-0.356254,1.47473,0.309111,0.999614,-5.2376,0,10548,47.742,27.044,12911.3
313572238,0.634767,2.223,94.8426,0.104628,0.0572258,0.880463,5.68892,-3.17718,-0.0230843,-0.392168,1.74081,0.473412,0.952625,-5.02138,0,10548,47.643,27.457,13081.3
313672554,0.634767,2.223,94.8268,0.117641,0.0613493,0.880577,5.50318,-3.08999,-0.0285031,-0.563901,1.7912,0.250892,0.913608,-4.82569,0,10548,47.643,27.457,13081.3
313772860,0.634767,2.223,94.8059,0.125593,0.0616057,0.881363,5.30887,-2.99605,-0.0340978,-0.501775,1.84184,0.575173,0.872889,-4.62966,0,10548,47.643,27.457,13081.3
313873225,0.634767,2.223,94.7894,0.128121,0.0607852,0.881463,5.10799,-2.88598,-0.0300621,-0.400701,1.96318,0.522263,0.839935,-4.45509,0,10548,47.643,27.457,13081.3
313973601,0.634767,2.223,94.777,0.124631,0.0574361,0.881415,4.90298,-2.77872,-0.0284929,-0.416295,1.9132,0.608851,0.808366,-4.27832,0,10548,47.643,27.457,13081.3
314073961,0.634767,2.223,94.7752,0.116737,0.0541043,0.881202,4.701,-2.68054,-0.00525394,-0.535939,1.914,0.262233,0.782099,-4.11952,0,10548,47.643,27.457,13081.3
314174294,0.634767,2.223,94.7806,0.108625,0.0460157,0.880928,4.52163,-2.58914,-0.0126686,-0.419696,1.68756,0.38361,0.756248,-3.95787,0,10548,47.643,27.457,13081.3
314274701,0.634767,2.223,94.7839,0.0993151,0.0338536,0.880261,4.35826,-2.48512,-0.00445474,-0.184101,1.63394,0.211972,0.736205,-3.81121,0,10548,47.643,27.457,13081.3
314375055,0.634767,2.223,94.7851,0.0964476,0.0248816,0.879955,4.20231,-2.38615,0.0097983,-0.188012,1.62754,-0.172873,0.71315,-3.66132,0,10548,47.643,27.457,13081.3
314475425,0.634767,2.223,94.7888,0.0923901,0.02174,0.880153,4.06079,-2.26999,0.0138796,0.0636475,1.59405,0.238631,0.690804,-3.52288,0,10548,47.643,27.457,13081.3
314575798,0.634767,2.223,94.7911,0.0882206,0.0241348,0.881195,3.93627,-2.16016,0.0477793,0.102612,1.49615,0.0194821,0.663284,-3.38328,0,10548,47.646,27.757,13225.1
314676198,0.634768,2.223,94.7943,0.0840123,0.0272558,0.881904,3.79663,-2.06559,0.0178794,-0.115977,1.55221,-0.122213,0.637127,-3.25232,0,10548,47.646,27.757,13225.1
314776551,0.634768,2.223,94.797,0.0788402,0.0272543,0.88176,3.64152,-1.98793,0.0258002,-0.342366,1.49908,0.432222,0.612936,-3.12173,0,10548,47.646,27.757,13225.1
314876904,0.634768,2.223,94.7961,0.0731339,0.0272785,0.881563,3.51949,-1.90667,0.0228344,-0.126828,1.32381,0.0498812,0.589796,-2.99735,0,10548,47.646,27.757,13225.1
314977301,0.634768,2.223,94.7912,0.0695035,0.0282881,0.881494,3.40521,-1.82819,0.0232931,-0.0676829,1.28708,0.22544,0.566152,-2.87453,0,10548,47.646,27.757,13225.1
315077606,0.634768,2.223,94.7876,0.063594,0.0324886,0.881565,3.27617,-1.75936,0.0294529,-0.246371,1.33001,-0.117344,0.542081,-2.75522,0,10548,47.646,27.757,13225.1
315177945,0.634768,2.223,94.7876,0.0633562,0.0378009,0.881819,3.16672,-1.69792,0.018751,-0.266344,1.27974,-0.671796,0.518213,-2.63906,0,10548,47.646,27.757,13225.1
315278221,0.634768,2.223,94.7844,0.0640412,0.041021,0.882428,3.0383,-1.63037,0.00553404,-0.242962,1.32733,0.0935776,0.493591,-2.52629,0,10548,47.646,27.757,13225.1
315378542,0.634768,2.223,94.7781,0.0637579,0.0415094,0.882665,2.92213,-1.57571,0.0131086,-0.306835,1.20443,0.531124,0.471108,-2.41822,0,10548,47.646,27.757,13225.1
315478857,0.634768,2.223,94.7771,0.0637545,0.0402672,0.883103,2.80897,-1.52627,0.0108175,-0.278127,1.19526,0.0855956,0.448517,-2.30961,0,10548,47.646,27.757,13225.1
315579141,0.634768,2.223,94.7738,0.0643243,0.0386506,0.882782,2.70738,-1.47034,0.0133294,-0.232698,1.1065,0.496258,0.429178,-2.20585,0,10548,47.646,27.757,13225.1
315679492,0.634768,2.223,94.7736,0.0668813,0.0379618,0.883161,2.59558,-1.41169,0.0249574,-0.272538,1.23792,0.489893,0.409444,-2.10394,0,10503,47.77,23.513,11232.2
315779873,0.634768,2.223,94.7751,0.0649485,0.0356369,0.882618,2.48764,-1.35214,0.026346,-0.19524,1.19295,0.145879,0.393161,-2.00876,0,10503,47.77,23.513,11232.2
315880369,0.634768,2.223,94.7756,0.0628653,0.0344785,0.882679,2.38645,-1.29312,0.0281994,-0.221465,1.226,0.0370218,0.375224,-1.91201,0,10503,47.77,23.513,11232.2
315980768,0.634768,2.223,94.7742,0.0576914,0.0329213,0.882968,2.28455,-1.23795,0.0310209,-0.205861,1.19329,0.0863149,0.357628,-1.82192,0,10503,47.77,23.513,11232.2
316081159,0.634768,2.223,94.7731,0.0555224,0.0318843,0.882362,2.18394,-1.18083,0.0328171,-0.206938,1.2017,0.00758602,0.341941,-1.7313,0,10503,47.77,23.513,11232.2
316181515,0.634768,2.223,94.7752,0.0526805,0.0320872,0.882419,2.08986,-1.12688,0.0418419,-0.198431,1.18953,0.123663,0.326192,-1.64831,0,10503,47.77,23.513,11232.2
316281883,0.634768,2.223,94.7727,0.0513913,0.0344669,0.88266,2.01363,-1.08122,0.0330389,-0.125747,0.970107,0.157312,0.310307,-1.56608,0,10503,47.77,23.513,11232.2
316382244,0.634768,2.223,94.7696,0.0531592,0.0383592,0.883131,1.93212,-1.02998,0.0266123,-0.162408,1.08064,0.123119,0.294818,-1.4902,0,10503,47.77,23.513,11232.2
316482599,0.634768,2.223,94.7676,0.0513845,0.0384033,0.882742,1.83811,-0.978639,0.0187497,-0.20031,1.1209,0.286809,0.28002,-1.41419,0,10503,47.77,23.513,11232.2
316582960,0.634768,2.223,94.7648,0.0517163,0.037689,0.882965,1.76008,-0.935556,0.0499785,-0.222822,0.969739,0.00433112,0.265241,-1.34442,0,10503,47.77,23.513,11232.2
316683306,0.634768,2.223,94.7649,0.049634,0.0370523,0.882937,1.66525,-0.885675,0.0318907,-0.229333,1.1895,-0.128861,0.251026,-1.2763,0,10503,47.777,24.263,11592.1
316783635,0.634768,2.223,94.7633,0.0467525,0.0368897,0.882756,1.58439,-0.835375,0.0344497,-0.169473,0.966673,0.247857,0.238299,-1.21452,0,10503,47.777,24.263,11592.1
316883950,0.634768,2.223,94.7637,0.0430447,0.0386624,0.88271,1.50832,-0.793145,0.0359679,-0.17635,0.951208,0.169892,0.225123,-1.15381,0,10503,47.777,24.263,11592.1
316984432,0.634768,2.223,94.7655,0.0409806,0.0412429,0.883007,1.41534,-0.748857,0.0331532,-0.196666,0.904745,0.0898705,0.212651,-1.09782,0,10503,47.777,24.263,11592.1
317084724,0.634768,2.223,94.7674,0.0363646,0.043701,0.883237,1.34764,-0.712928,0.0395356,-0.185086,0.783332,0.208468,0.200573,-1.04373,0,10503,47.777,24.263,11592.1
317185007,0.634768,2.223,94.7681,0.0337191,0.0451158,0.883553,1.28458,-0.685934,0.0396108,-0.176106,0.773436,-0.108971,0.189537,-0.993715,0,10503,47.777,24.263,11592.1
317285325,0.634768,2.223,94.7723,0.0312623,0.0452517,0.883675,1.2213,-0.654086,0.0336019,-0.16929,0.771198,0.0143311,0.178723,-0.943472,0,10503,47.777,24.263,11592.1
317385651,0.634768,2.223,94.7813,0.0331752,0.0458165,0.88367,1.15864,-0.632341,0.0394626,-0.243405,0.688124,0.00389509,0.169016,-0.896902,0,10503,47.777,24.263,11592.1
317485851,0.634768,2.223,94.7905,0.0321459,0.0451334,0.883535,1.09446,-0.612445,0.0522874,-0.245344,0.6501,-0.010015,0.159774,-0.849756,0,10503,47.777,24.263,11592.1
317586068,0.634769,2.223,94.7919,0.0344272,0.0425178,0.883643,1.03106,-0.59322,0.036078,-0.223543,0.642995,0.0122359,0.151737,-0.806735,0,10503,47.777,24.263,11592.1
317686354,0.634769,2.223,94.7921,0.0315065,0.0395883,0.883426,0.963249,-0.565959,0.03568,-0.240173,0.753456,0.0374878,0.145283,-0.763452,0,10503,47.777,24.263,11592.1
317786688,0.634769,2.223,94.7967,0.0322712,0.0379449,0.883539,0.908727,-0.539201,0.0383976,-0.109127,0.628287,-0.140179,0.139697,-0.724751,0,10503,47.777,24.263,11592.1
317887001,0.634769,2.223,94.7964,0.0291544,0.0366644,0.883744,0.850979,-0.502276,0.0300407,-0.1158,0.702741,-0.00893995,0.134277,-0.686203,0,10503,47.777,24.263,11592.1
317987367,0.634769,2.223,94.7939,0.0296564,0.0375658,0.88363,0.803526,-0.472229,0.0282036,-0.170904,0.620505,-0.0444619,0.12926,-0.65186,0,10503,47.777,24.263,11592.1
318087721,0.634769,2.223,94.7931,0.0274789,0.036282,0.88323,0.754779,-0.433674,0.0312412,-0.0715061,0.709131,0.0287007,0.124844,-0.618426,0,10503,47.777,24.263,11592.1
318187998,0.634769,2.223,94.7959,0.0242528,0.0361628,0.88308,0.712538,-0.400741,0.0205973,-0.0207648,0.534827,0.103347,0.120479,-0.588961,0,10503,47.777,24.263,11592.1
318288395,0.634769,2.223,94.7977,0.023255,0.0364657,0.882938,0.672104,-0.377224,0.0299327,-0.0992212,0.495544,0.175952,0.114926,-0.559978,0,10503,47.777,24.263,11592.1
318388754,0.634769,2.223,94.7983,0.0224499,0.0364529,0.882977,0.628835,-0.362034,0.0341241,-0.155232,0.467549,-0.00272243,0.109672,-0.533876,0,10503,47.777,24.263,11592.1
318488933,0.634769,2.223,94.7975,0.0205813,0.0361018,0.883208,0.582272,-0.334335,0.0259132,-0.0897269,0.556119,-0.129537,0.104594,-0.507962,0,10503,47.777,24.263,11592.1
318589375,0.634769,2.223,94.7996,0.0189814,0.0365398,0.883134,0.538177,-0.314055,0.030014,-0.149227,0.543698,0.281676,0.100659,-0.484825,0,10503,47.777,24.263,11592.1
318691021,0.634769,2.223,94.8003,0.0160711,0.0347278,0.883256,0.502139,-0.292967,0.0327443,-0.0810974,0.484807,-0.0856139,0.096641,-0.46151,0,10503,47.739,25.477,12162.5
318791296,0.634769,2.223,94.7976,0.016387,0.0337803,0.883378,0.464453,-0.279973,0.0261001,-0.148184,0.422443,-0.0699695,0.0933589,-0.441047,0,10503,47.739,25.477,12162.5
318891474,0.634769,2.223,94.7911,0.0167286,0.03296,0.88327,0.427889,-0.257658,0.0158361,-0.0640294,0.514146,0.305636,0.0898404,-0.420101,0,10503,47.739,25.477,12162.5
318991701,0.634769,2.223,94.7866,0.015196,0.0341356,0.883269,0.395856,-0.220969,0.0424937,0.0932496,0.526477,1.13533,0.0868086,-0.402013,0,10503,47.739,25.477,12162.5
319091933,0.634769,2.223,94.7831,0.0113818,0.0360666,0.883411,0.354396,-0.200651,0.0344119,-0.179587,0.489139,-0.605202,0.0830866,-0.384374,0,10503,47.739,25.477,12162.5
319192187,0.634769,2.223,94.7788,0.00860424,0.0330641,0.883262,0.318457,-0.200204,0.0262464,-0.181825,0.333483,0.227364,0.0806426,-0.369698,0,10503,47.739,25.477,12162.5
319292418,0.634769,2.223,94.7772,0.00740545,0.0311784,0.883066,0.290634,-0.17858,0.0373359,-0.0657212,0.373946,-0.0638281,-4.8,1.2,0,10503,47.739,25.477,12162.5
319392734,0.634769,2.223,94.7804,0.0105309,0.033515,0.883121,0.275789,-0.165825,0.0248346,0.00782064,0.209206,0.0421636,-4.8,1.2,0,10503,47.739,25.477,12162.5
319493052,0.634769,2.223,94.7782,0.0275916,0.0376925,0.88326,0.232979,-0.148331,0.0249023,-0.160014,0.519849,-0.00469047,-4.8,1.2,0,10503,47.739,25.477,12162.5
319593345,0.634769,2.223,94.7678,0.0345009,0.0405721,0.8832,0.165955,-0.119349,0.0268046,-0.183134,0.654972,0.203476,-4.8,1.2,0,10503,47.739,25.477,12162.5
319693609,0.634769,2.223,94.76,0.0369194,0.0411415,0.882869,0.109936,-0.0980306,0.0400318,-0.192302,0.586868,0.0795345,-4.8,1.2,0,10503,47.739,25.477,12162.5
319793944,0.634769,2.223,94.7549,0.0365651,0.0407241,0.882877,0.0582009,-0.070926,0.0344129,-0.15056,0.60173,0.024716,-4.8,1.2,0,10503,47.696,25.349,12090.5
319894363,0.634769,2.223,94.7496,0.0335785,0.0402798,0.882865,0.00732681,-0.0375854,0.0380315,-0.0876935,0.723933,0.0901901,-4.8,1.2,0,10503,47.696,25.349,12090.5
319997151,0.634769,2.223,94.7499,0.0281127,0.0389563,0.882677,-0.0357308,-0.0149558,0.0401587,-0.133115,0.496203,0.266693,-4.8,1.2,0,10503,47.696,25.349,12090.5
320098448,0.634769,2.223,94.7525,0.0203218,0.0368578,0.882264,-0.0841937,0.0103237,0.0477835,-0.111893,0.538494,-0.0870425,-4.8,1.2,0,10503,47.696,25.349,12090.5
320198862,0.634769,2.223,94.7507,0.0131125,0.0345417,0.882226,-0.113213,0.028425,0.0442592,-0.0590666,0.332836,0.0860669,-4.8,1.2,0,10503,47.696,25.349,12090.5
320299264,0.634769,2.223,94.7487,0.00826304,0.0337156,0.882118,-0.125947,0.0532776,0.0607506,0.0869526,0.262488,0.223628,-4.8,1.2,0,10503,47.696,25.349,12090.5
320399617,0.634769,2.223,94.7544,0.00280764,0.0379745,0.882585,-0.138381,0.0570437,0.0552773,-0.08514,0.145806,-0.232047,-4.8,1.2,0,10503,47.696,25.349,12090.5
320499965,0.634769,2.223,94.7549,0.0274786,0.150187,0.886113,-0.149947,0.0588974,0.0829135,-0.234889,0.168899,0.104137,-4.8,1.2,0,10503,47.696,25.349,12090.5
320600313,0.634769,2.223,94.7549,0.0579164,0.28016,0.892088,-0.281316,-0.0353095,0.0374918,-1.84927,0.542756,-0.204228,-4.8,1.2,0,10503,47.696,25.349,12090.5
320700678,0.634769,2.223,94.7584,0.0828261,0.368132,0.899567,-0.515404,-0.212961,0.00490574,-2.9589,0.75554,0.51523,-4.8,1.2,0,10503,47.696,25.349,12090.5
320801038,0.634769,2.223,94.757,0.0962376,0.410076,0.904398,-0.831179,-0.441025,0.00129058,-3.30815,0.921705,1.9409,-4.8,1.2,0,10503,47.696,25.349,12090.5
320901402,0.634769,2.223,94.7545,0.102268,0.422266,0.906477,-1.1644,-0.686851,0.0341455,-3.59601,0.989924,1.72144,-4.8,1.2,0,10503,47.696,25.349,12090.5
321001781,0.634769,2.223,94.7512,0.102032,0.420942,0.907322,-1.50775,-0.927922,0.0275612,-3.64312,1.05963,1.67046,-4.8,1.2,0,10503,47.696,25.349,12090.5
321102146,0.634769,2.223,94.7482,0.0991304,0.415962,0.906884,-1.85391,-1.16775,0.0375335,-3.57895,1.18478,1.65341,-4.8,1.2,0,10503,47.696,25.349,12090.5
321202506,0.634769,2.223,94.7467,0.0933335,0.409721,0.905611,-2.17758,-1.40122,0.0473254,-3.35566,0.884266,1.81825,-4.8,1.2,0,10503,47.696,25.349,12090.5
321302889,0.634769,2.223,94.7479,0.0902872,0.401148,0.9047,-2.54613,-1.68603,0.05522,-3.39333,0.832867,1.39143,1,2.4,0,10503,47.7,24.971,11911.2
321403285,0.634768,2.223,94.7469,0.0929975,0.376143,0.904745,-2.84055,-1.91154,0.0421787,-3.32687,0.795378,1.06783,1,2.4,0,10503,47.7,24.971,11911.2
321503663,0.634768,2.223,94.7462,0.116819,0.139587,0.901804,-3.1124,-2.09487,0.0900749,-2.36235,0.927084,1.66166,1,2.4,0,10503,47.7,24.971,11911.2
