timestamp,lat,log,alt,roll,pitch,yaw,vel_x,vel_y,vel_z,acc_x,acc_y,acc_z,act_vx,act_vy,act_yr,capacity,vol,cur,power
6476632061,0.63477,2.223,107.635,-0.0549333,-0.0184927,0.855984,-0.011817,0.108857,-0.0313274,0.149888,-0.0312135,0.0508001,-0.6,-2.5,0,12800,50.068,25.392,12713.3
6476733969,0.63477,2.223,107.62,-0.0571684,-0.0174327,0.85585,0.0022066,0.116149,-0.0267618,0.193596,-0.0841328,0.183653,-0.6,-2.5,0,12800,50.068,25.392,12713.3
6476836257,0.63477,2.223,107.612,-0.0660258,-0.0114041,0.856305,0.00305341,0.128219,-0.0189314,0.121439,0.0043209,0.0309642,-0.6,-2.5,0,12800,50.068,25.392,12713.3
6476936581,0.63477,2.223,107.609,-0.170399,0.021387,0.855484,0.0164628,0.119887,0.00472769,0.00101701,-0.359797,-0.142016,-0.6,-2.5,0,12800,50.068,25.392,12713.3
6477036928,0.63477,2.223,107.601,-0.294561,0.0576356,0.847677,0.108373,-0.00746619,-0.0289447,-0.381013,-1.65958,0.303921,-0.6,-2.5,0,12800,50.068,25.392,12713.3
6477137327,0.63477,2.223,107.607,-0.381358,0.0823238,0.840505,0.2703,-0.24332,-0.0397523,-0.659871,-2.58847,1.27398,-0.6,-2.5,0,12800,50.068,25.392,12713.3
6477237730,0.63477,2.223,107.607,-0.419553,0.0918332,0.837832,0.478237,-0.547137,-0.0223595,-0.78526,-3.2063,1.66701,-0.6,-2.5,0,12800,50.068,25.392,12713.3
6477338021,0.63477,2.223,107.619,-0.404586,0.0851801,0.841956,0.700885,-0.873122,0.000771455,-0.852129,-3.38764,1.73949,-0.6,-2.5,0,12800,50.068,25.392,12713.3
6477438445,0.63477,2.223,107.627,-0.357337,0.0690872,0.848301,0.903514,-1.16412,0.0159198,-0.741315,-3.11207,1.22152,-0.6,-2.5,0,12800,50.068,25.392,12713.3
6477538784,0.63477,2.223,107.626,-0.304748,0.0533345,0.852449,1.08172,-1.3992,0.0303161,-0.493142,-2.5449,1.17477,-0.6,-2.5,0,12800,50.068,25.392,12713.3
6477639202,0.63477,2.223,107.638,-0.254373,0.0382751,0.854989,1.21969,-1.579,0.0413653,-0.371001,-1.99175,0.544066,0,2,0,12771,50.099,24.625,12336.9
6477739571,0.63477,2.223,107.647,-0.180948,0.0229425,0.854323,1.3245,-1.71631,0.0397168,-0.285848,-1.53361,0.649452,0,2,0,12771,50.099,24.625,12336.9
6477839917,0.63477,2.223,107.658,0.0852955,-0.0154397,0.856014,1.39109,-1.79614,0.104558,0.0239796,-0.539102,0.493405,0,2,0,12771,50.099,24.625,12336.9
6477940329,0.63477,2.223,107.685,0.317378,-0.0333146,0.852747,1.23741,-1.60076,0.136598,0.549278,3.00289,-0.0678394,0,2,0,12771,50.099,24.625,12336.9
6478040678,0.63477,2.223,107.705,0.432267,-0.0322736,0.852259,0.959665,-1.30822,-0.0148971,0.413885,4.23964,0.596122,0,2,0,12771,50.099,24.625,12336.9
6478141023,0.63477,2.223,107.688,0.485558,-0.0272844,0.854586,0.576549,-0.919376,-0.0654589,0.388949,4.93438,2.48243,0,2,0,12771,50.099,24.625,12336.9
6478241395,0.63477,2.223,107.663,0.498349,-0.0213817,0.8572,0.167128,-0.517686,-0.108273,0.307184,5.09565,2.26344,0,2,0,12771,50.099,24.625,12336.9
6478341704,0.63477,2.223,107.642,0.455363,-0.0146315,0.858618,-0.260493,-0.113073,-0.131167,0.274639,5.03259,2.8996,0,2,0,12771,50.099,24.625,12336.9
6478442071,0.63477,2.223,107.595,0.368973,-0.0178291,0.857954,-0.66341,0.26129,-0.108367,0.195248,4.74128,2.21999,0,2,0,12771,50.099,24.625,12336.9
6478542411,0.63477,2.223,107.54,0.254759,-0.031196,0.854771,-0.976037,0.556353,-0.10003,0.171207,3.67527,1.62291,0,2,0,12771,50.099,24.625,12336.9
6478642836,0.63477,2.223,107.502,0.147236,-0.0396246,0.853558,-1.17497,0.780693,-0.0471073,0.364833,2.39638,1.47387,0,1.4,0,12771,50.119,23.472,11763.9
6478743171,0.63477,2.223,107.474,0.0658651,-0.0410402,0.85435,-1.28876,0.929912,0.0131127,0.354819,1.45362,0.731429,0,1.4,0,12771,50.119,23.472,11763.9
6478843495,0.63477,2.223,107.459,-0.023673,-0.0345978,0.855639,-1.33838,1.0274,0.0625939,0.42141,0.574116,0.392732,0,1.4,0,12771,50.119,23.472,11763.9
6478943859,0.63477,2.223,107.457,-0.0762517,-0.0315921,0.855598,-1.32638,1.05138,0.0569602,0.314186,-0.201371,-0.0798799,0,1.4,0,12771,50.119,23.472,11763.9
6479044271,0.63477,2.223,107.471,-0.0989281,-0.0278114,0.855991,-1.27911,1.04744,0.066112,0.298478,-0.586354,0.320256,0,1.4,0,12771,50.119,23.472,11763.9
6479144619,0.63477,2.223,107.501,-0.0967704,-0.0242505,0.856135,-1.22424,1.033,0.0911856,0.274974,-0.675905,0.0719317,0,1.4,0,12771,50.119,23.472,11763.9
6479245005,0.63477,2.223,107.527,-0.0858823,-0.0198309,0.856188,-1.16892,1.01404,0.0867535,0.293857,-0.701978,-0.0712376,0,1.4,0,12771,50.119,23.472,11763.9
6479345369,0.63477,2.223,107.533,-0.0703361,-0.0139344,0.855967,-1.12735,0.996881,0.0778018,0.233653,-0.516137,-0.260027,0,1.4,0,12771,50.119,23.472,11763.9
6479445766,0.63477,2.223,107.548,-0.058392,-0.00979533,0.855519,-1.10019,0.987098,0.0674845,0.148972,-0.332638,-0.00127263,0,1.4,0,12771,50.119,23.472,11763.9
6479546095,0.63477,2.223,107.563,-0.0508146,-0.00657063,0.85511,-1.07949,0.973111,0.0732146,0.0742455,-0.252934,-0.249157,0,1.4,0,12771,50.119,23.472,11763.9
6479646522,0.63477,2.223,107.573,-0.0465427,-0.00566372,0.854616,-1.06767,0.965974,0.0562447,0.0485396,-0.124386,-0.358789,-3.5,2.2,0,12771,49.991,26.097,13046.2
6479746888,0.63477,2.223,107.575,-0.0435654,0.00967339,0.855199,-1.05524,0.966177,0.0424133,0.179299,-0.0654739,0.216996,-3.5,2.2,0,12771,49.991,26.097,13046.2
6479847257,0.63477,2.223,107.58,-0.00163219,0.169457,0.856602,-1.04439,0.946416,0.0991172,-0.388056,-0.0748122,0.0211919,-3.5,2.2,0,12771,49.991,26.097,13046.2
6479947572,0.63477,2.223,107.585,0.0340781,0.298332,0.8613,-1.20626,0.807197,0.0446362,-2.2793,0.364426,-0.20697,-3.5,2.2,0,12771,49.991,26.097,13046.2
6480047921,0.63477,2.223,107.578,0.0544488,0.376719,0.867034,-1.45881,0.600786,0.00275651,-3.09767,0.593422,0.994396,-3.5,2.2,0,12771,49.991,26.097,13046.2
6480148308,0.63477,2.223,107.587,0.0635596,0.410593,0.870885,-1.78392,0.345947,-0.00832253,-3.72382,0.817314,1.41241,-3.5,2.2,0,12771,49.991,26.097,13046.2
6480248684,0.63477,2.223,107.601,0.0716348,0.421503,0.872498,-2.20252,0.0129123,0.00262192,-3.85865,0.783175,1.8082,-3.5,2.2,0,12771,49.991,26.097,13046.2
6480349016,0.63477,2.223,107.61,0.0704888,0.394598,0.870966,-2.56522,-0.25057,0.0216354,-3.79071,0.951945,1.71138,-3.5,2.2,0,12771,49.991,26.097,13046.2
6480449268,0.63477,2.223,107.616,0.0585088,0.340503,0.868121,-2.82019,-0.432822,0.0445924,-3.37968,0.859723,1.38331,-3.5,2.2,0,12771,49.991,26.097,13046.2
6480549551,0.63477,2.223,107.632,0.0455547,0.279853,0.864782,-3.13594,-0.648579,0.0361577,-2.64989,0.794875,0.679632,-3.5,2.2,0,12771,49.991,26.097,13046.2
6480649962,0.63477,2.223,107.646,0.0342943,0.221189,0.862131,-3.33846,-0.78269,0.0349238,-2.14625,0.666976,0.0736015,-1.9,3.7,0,12771,49.991,26.097,13046.2
6480750310,0.63477,2.223,107.664,0.0369817,0.157975,0.863747,-3.50005,-0.883046,0.0240279,-1.56251,0.573368,0.334978,-1.9,3.7,0,12771,50.033,26.099,13058.1
6480850720,0.63477,2.223,107.666,0.139622,-0.0190268,0.864147,-3.62405,-0.909669,0.0765335,-0.303856,0.965377,0.169139,-1.9,3.7,0,12771,50.033,26.099,13058.1
6480951041,0.63477,2.223,107.666,0.221946,-0.124199,0.84965,-3.69976,-0.705476,-0.00366451,1.42589,2.13718,-0.632952,-1.9,3.7,0,12771,50.033,26.099,13058.1
6481051422,0.63477,2.223,107.657,0.250683,-0.16516,0.83914,-3.78332,-0.417107,-0.0758417,1.82285,2.40131,0.994,-1.9,3.7,0,12771,50.033,26.099,13058.1
6481151758,0.634769,2.223,107.63,0.22874,-0.15842,0.838917,-3.85707,-0.0771898,-0.0654867,2.06822,2.54853,1.15454,-1.9,3.7,0,12771,50.033,26.099,13058.1
6481252110,0.634769,2.223,107.607,0.178228,-0.125349,0.844182,-3.90847,0.224261,-0.0429738,1.8478,2.10605,0.876795,-1.9,3.7,0,12771,50.033,26.099,13058.1
6481352452,0.634769,2.223,107.588,0.131848,-0.0877277,0.848919,-3.93849,0.443255,-0.0174674,1.33742,1.48215,0.90936,-1.9,3.7,0,12771,50.033,26.099,13058.1
6481452758,0.634769,2.223,107.576,0.100465,-0.0559713,0.852553,-3.96339,0.596561,0.00755008,0.915467,1.11404,0.271761,-1.9,3.7,0,12771,50.033,26.099,13058.1
6481553119,0.634769,2.223,107.57,0.0790015,-0.0297661,0.855795,-3.97676,0.710662,0.00316668,0.734211,0.786377,0.0734801,-1.9,3.7,0,12771,50.033,26.099,13058.1
6481653525,0.634769,2.223,107.57,0.0655261,-0.0105938,0.857401,-3.99974,0.79518,0.00579818,0.390939,0.704076,0.0080188,-1.4,-1.8,0,12771,50.033,26.099,13058.1
6481753940,0.634769,2.223,107.569,0.0267609,0.00283228,0.860308,-4.02955,0.853273,0.00310461,0.147552,0.529806,0.299899,-1.4,-1.8,0,12771,50.061,25.749,12890.2
6481854368,0.634769,2.223,107.568,-0.173643,-0.010268,0.859848,-4.01853,0.875251,0.0683277,0.227658,-0.337222,0.284966,-1.4,-1.8,0,12771,50.061,25.749,12890.2
6481954734,0.634769,2.223,107.589,-0.335424,-0.0251178,0.862932,-3.80726,0.751268,0.0281497,0.404913,-2.69299,0.00127923,-1.4,-1.8,0,12771,50.061,25.749,12890.2
6482055080,0.634769,2.223,107.601,-0.428144,-0.0306101,0.865537,-3.48701,0.546889,-0.0326729,0.531707,-3.60859,1.49984,-1.4,-1.8,0,12771,50.061,25.749,12890.2
6482155415,0.634769,2.223,107.602,-0.465379,-0.0282177,0.865757,-3.08041,0.284601,-0.0421328,0.576901,-4.13619,2.30627,-1.4,-1.8,0,12771,50.061,25.749,12890.2
6482257128,0.634769,2.223,107.597,-0.472993,-0.020882,0.862054,-2.65024,-0.00539497,-0.0388531,0.612481,-4.36394,2.5161,-1.4,-1.8,0,12771,50.061,25.749,12890.2
6482357550,0.634769,2.223,107.593,-0.464417,-0.0117352,0.858493,-2.23807,-0.30097,-0.0256073,0.423038,-4.26829,2.39893,-1.4,-1.8,0,12771,50.061,25.749,12890.2
6482459632,0.634769,2.223,107.582,-0.453985,-0.00441681,0.855811,-1.84887,-0.595855,-0.0139121,0.277249,-4.17235,2.24688,-1.4,-1.8,0,12771,50.061,25.749,12890.2
6482559987,0.634769,2.223,107.579,-0.442839,-0.0033238,0.856301,-1.4782,-0.897321,0.00414964,0.155716,-4.07606,2.12658,-1.4,-1.8,0,12771,50.061,25.749,12890.2
6482660458,0.634769,2.223,107.584,-0.416279,-0.00752267,0.859268,-1.11775,-1.1755,0.0286321,0.279003,-3.78411,2.0597,-0.2,0.3,0,12771,50.061,25.749,12890.2
6482760820,0.634769,2.223,107.583,-0.350688,-0.00896497,0.858938,-0.807155,-1.4181,0.0364207,0.200812,-3.36085,1.34587,-0.2,0.3,0,12771,50.026,25.721,12867.2
6482861180,0.634769,2.223,107.585,-0.140917,-0.0910438,0.854331,-0.544469,-1.63001,0.117802,0.204636,-2.69515,1.26733,-0.2,0.3,0,12771,50.026,25.721,12867.2
6482961556,0.634769,2.223,107.603,0.075689,-0.182421,0.842457,-0.439265,-1.54488,0.130118,1.59454,0.285119,-0.45384,-0.2,0.3,0,12771,50.026,25.721,12867.2
6483061918,0.634769,2.223,107.629,0.16398,-0.202953,0.838703,-0.4315,-1.28433,0.025336,2.15942,1.90481,-0.229261,-0.2,0.3,0,12771,50.026,25.721,12867.2
6483162281,0.634769,2.223,107.64,0.181963,-0.188983,0.841271,-0.449364,-0.9717,-0.0124683,2.15432,2.30188,0.531196,-0.2,0.3,0,12771,50.026,25.721,12867.2
6483262630,0.634769,2.223,107.647,0.157784,-0.158131,0.848028,-0.498538,-0.674818,-0.0245505,1.81401,2.3408,0.643015,-0.2,0.3,0,12771,50.026,25.721,12867.2
6483362974,0.634769,2.223,107.646,0.124451,-0.125401,0.854124,-0.545953,-0.432961,-0.0248442,1.45383,1.93578,0.471165,-0.2,0.3,0,12771,50.026,25.721,12867.2
6483463313,0.634769,2.223,107.644,0.0914108,-0.0962791,0.856969,-0.595864,-0.240724,-0.0206424,1.09317,1.56391,0.0970712,-0.2,0.3,0,12771,50.026,25.721,12867.2
6483563648,0.634769,2.223,107.655,0.0575098,-0.0774751,0.857841,-0.655687,-0.0767216,-0.00914046,0.859901,1.39399,0.136661,-0.2,0.3,0,12771,50.026,25.721,12867.2
6483664081,0.634769,2.223,107.659,0.0252901,-0.0595766,0.858297,-0.689764,0.0554188,-0.0013287,0.732101,0.920608,0.104614,0.5,-2.7,0,12771,50.026,25.721,12867.2
6483764436,0.634769,2.223,107.657,-0.0146632,-0.0445005,0.860205,-0.714636,0.149009,0.0171687,0.533543,0.583899,0.0111676,0.5,-2.7,0,12771,50.026,27.121,13567.6
6483864810,0.634769,2.223,107.67,-0.14525,-0.0498392,0.864009,-0.722437,0.208691,0.0510935,0.390897,-0.00872471,-0.241904,0.5,-2.7,0,12771,50.026,27.121,13567.6
6483965162,0.634769,2.223,107.679,-0.269052,-0.0682985,0.867622,-0.610201,0.169292,-0.0430421,0.554207,-1.662,-0.671864,0.5,-2.7,0,12771,50.026,27.121,13567.6
6484065509,0.634769,2.223,107.679,-0.351208,-0.0805471,0.870598,-0.386974,0.0703374,-0.06742,0.705437,-2.42964,0.897618,0.5,-2.7,0,12771,50.026,27.121,13567.6
6484165849,0.634769,2.223,107.667,-0.390817,-0.0849339,0.870436,-0.109751,-0.070933,-0.071723,0.766308,-2.92359,1.37689,0.5,-2.7,0,12771,50.026,27.121,13567.6
6484266208,0.634769,2.223,107.66,-0.401977,-0.0883403,0.870705,0.18966,-0.229387,-0.0496788,0.769608,-3.05826,1.54958,0.5,-2.7,0,12771,50.026,27.121,13567.6
6484366571,0.634769,2.223,107.643,-0.400336,-0.0938202,0.871196,0.503988,-0.394373,-0.0412426,0.824892,-3.04745,1.78276,0.5,-2.7,0,12771,50.026,27.121,13567.6
6484466974,0.634769,2.223,107.638,-0.387072,-0.0968836,0.872013,0.817019,-0.542653,-0.00995952,0.97264,-3.07653,1.45809,0.5,-2.7,0,12771,50.026,27.121,13567.6
6484567281,0.634769,2.223,107.654,-0.349957,-0.0896289,0.869928,1.11108,-0.668983,0.00852327,0.93657,-2.73248,1.30279,0.5,-2.7,0,12771,50.026,27.121,13567.6
6484667651,0.634769,2.223,107.684,-0.306508,-0.0821428,0.867545,1.36215,-0.772811,0.0187417,0.892743,-2.38203,0.834869,-4.2,3.9,0,12771,50.026,27.121,13567.6
6484768060,0.634769,2.223,107.698,-0.258625,-0.0677161,0.864981,1.57724,-0.861134,0.0232029,0.776924,-2.04241,0.671579,-4.2,3.9,0,12771,49.912,27.531,13741.3
6484868413,0.634769,2.223,107.698,-0.05688,0.0517024,0.859907,1.7707,-0.929958,0.0956474,0.669337,-1.52736,0.482227,-4.2,3.9,0,12771,49.912,27.531,13741.3
6484968766,0.634769,2.223,107.754,0.206545,0.180852,0.879382,1.63525,-0.947724,0.167074,-1.05033,1.21701,1.18083,-4.2,3.9,0,12771,49.912,27.531,13741.3
6485070563,0.634769,2.223,107.774,0.358297,0.255144,0.903034,1.13871,-0.870265,0.13217,-2.40345,3.94254,0.307514,-4.2,3.9,0,12771,49.912,27.531,13741.3
6485175014,0.634769,2.223,107.769,0.4098,0.29207,0.914859,0.663403,-0.794901,-0.044514,-2.46641,4.01353,1.35271,-4.2,3.9,0,12771,49.912,27.531,13741.3
6485275410,0.634769,2.223,107.766,0.413207,0.295103,0.910503,0.0996339,-0.724491,-0.0916583,-2.79364,4.25231,2.28821,-4.2,3.9,0,12771,49.912,27.531,13741.3
6485377332,0.634769,2.223,107.752,0.405345,0.293243,0.907238,-0.445129,-0.646936,-0.136952,-2.75474,4.25916,1.95544,-4.2,3.9,0,12771,49.912,27.531,13741.3
6485477736,0.634769,2.223,107.708,0.404197,0.282862,0.900556,-0.986419,-0.575164,-0.201718,-2.76379,4.17306,1.86952,-4.2,3.9,0,12771,49.912,27.531,13741.3
6485578090,0.634769,2.223,107.65,0.392695,0.260913,0.889529,-1.54122,-0.470823,-0.224657,-2.34107,4.06099,2.67214,-4.2,3.9,0,12771,49.912,27.531,13741.3
6485678491,0.634769,2.223,107.611,0.372681,0.249555,0.883858,-2.13205,-0.347142,-0.16834,-2.36256,4.31142,3.16723,-2.4,0.6,0,12771,49.912,27.531,13741.3
6485778844,0.634769,2.223,107.592,0.312284,0.233099,0.872893,-2.66243,-0.225272,-0.124464,-2.17401,4.00864,2.48445,-2.4,0.6,0,12771,49.981,24.959,12474.8
6485879202,0.634769,2.223,107.586,0.0720371,0.13615,0.835203,-3.1296,-0.130931,-0.0146883,-1.71528,3.25224,2.00016,-2.4,0.6,0,12771,49.981,24.959,12474.8
6485979564,0.634768,2.223,107.607,-0.190033,0.0466798,0.838917,-3.23797,-0.142478,0.0465703,-0.524545,0.00520967,-0.330796,-2.4,0.6,0,12771,49.981,24.959,12474.8
6486079917,0.634768,2.223,107.623,-0.313122,0.0187555,0.853032,-3.09912,-0.264134,0.00743762,0.236031,-2.08109,0.592705,-2.4,0.6,0,12771,49.981,24.959,12474.8
6486180303,0.634768,2.223,107.64,-0.337388,0.019225,0.858262,-2.88004,-0.447151,0.0175371,0.219452,-2.77044,1.25612,-2.4,0.6,0,12771,49.981,24.959,12474.8
6486280641,0.634768,2.223,107.645,-0.303974,0.0312585,0.858175,-2.66676,-0.623099,0.0251125,0.169448,-2.65944,0.975947,-2.4,0.6,0,12771,49.981,24.959,12474.8
6486380993,0.634768,2.223,107.647,-0.253781,0.0400909,0.857093,-2.50485,-0.783419,0.0303806,-0.0628732,-2.23991,0.721315,-2.4,0.6,0,12771,49.981,24.959,12474.8
6486481958,0.634768,2.223,107.655,-0.210029,0.0438458,0.855864,-2.38236,-0.911648,0.0349001,-0.0906768,-1.74304,0.430097,-2.4,0.6,0,12771,49.981,24.959,12474.8
6486584356,0.634768,2.223,107.662,-0.171939,0.0449378,0.854886,-2.29374,-1.01279,0.0306235,-0.0762393,-1.32299,0.154753,-2.4,0.6,0,12771,49.981,24.959,12474.8
6486689671,0.634768,2.223,107.667,-0.138562,0.0458212,0.854483,-2.20977,-1.10725,0.00896841,-0.092027,-0.879195,0.268916,-1,-3,0,12771,49.981,24.959,12474.8
6486789944,0.634768,2.223,107.66,-0.125158,0.0340996,0.85421,-2.16544,-1.17292,0.00976037,-0.182981,-0.587204,0.440639,-1,-3,0,12727,50,24.899,12449.5
6486890164,0.634768,2.223,107.651,-0.204301,-0.0301657,0.855376,-2.10027,-1.2183,0.0155695,0.259285,-0.833154,-0.327581,-1,-3,0,12727,50,24.899,12449.5
6486990525,0.634768,2.223,107.637,-0.314103,-0.0876447,0.868107,-1.89045,-1.27829,-0.0506727,0.962767,-1.97459,0.432154,-1,-3,0,12727,50,24.899,12449.5
6487090854,0.634768,2.223,107.617,-0.384475,-0.121581,0.879896,-1.55258,-1.36844,-0.0623922,1.44206,-2.66688,1.61042,-1,-3,0,12727,50,24.899,12449.5
6487191255,0.634768,2.223,107.611,-0.423178,-0.129716,0.885678,-1.16405,-1.49846,-0.0292099,1.47802,-3.36452,1.44835,-1,-3,0,12727,50,24.899,12449.5
6487291581,0.634768,2.223,107.604,-0.438766,-0.124404,0.886109,-0.7612,-1.61131,-0.0363322,1.59679,-3.20371,1.82467,-1,-3,0,12727,50,24.899,12449.5
6487391931,0.634768,2.223,107.604,-0.443102,-0.110301,0.883264,-0.344955,-1.74609,-0.00868539,1.52179,-3.34733,2.14388,-1,-3,0,12727,50,24.899,12449.5
6487492303,0.634768,2.223,107.618,-0.443219,-0.0948873,0.87931,0.052128,-1.89239,0.0053271,1.34073,-3.41583,1.72494,-1,-3,0,12727,50,24.899,12449.5
6487592639,0.634768,2.223,107.636,-0.41498,-0.0758705,0.874143,0.420014,-2.04415,0.00901453,1.10451,-3.15349,1.78293,-1,-3,0,12727,50,24.899,12449.5
6487693038,0.634768,2.223,107.646,-0.368054,-0.053942,0.867964,0.743508,-2.1874,0.024988,0.896378,-2.81212,1.41639,3.7,-2.3,0,12727,50,24.899,12449.5
6487793401,0.634768,2.223,107.659,-0.307078,-0.0547165,0.868346,1.01239,-2.32199,0.0399046,0.543717,-2.34637,1.47088,3.7,-2.3,0,12727,50,24.899,12449.5
6487893722,0.634768,2.223,107.678,-0.176229,-0.194005,0.869585,1.26101,-2.40033,0.177117,1.1299,-1.77161,1.02896,3.7,-2.3,0,12727,50.063,26.486,13259.7
6487994102,0.634768,2.223,107.699,-0.0733895,-0.328045,0.862392,1.4561,-2.21728,0.113549,2.87356,-0.0756572,-0.263088,3.7,-2.3,0,12727,50.063,26.486,13259.7
6488094447,0.634768,2.223,107.706,-0.0407372,-0.405725,0.860999,1.67026,-1.91628,-0.00879969,3.80681,0.475875,0.420492,3.7,-2.3,0,12727,50.063,26.486,13259.7
6488194763,0.634768,2.223,107.693,-0.0313737,-0.430672,0.861065,1.9396,-1.54725,-0.0714955,4.19889,0.554474,1.5327,3.7,-2.3,0,12727,50.063,26.486,13259.7
6488295185,0.634768,2.223,107.678,-0.0302435,-0.438962,0.86455,2.20969,-1.14985,-0.0905745,4.2178,0.632297,2.1036,3.7,-2.3,0,12727,50.063,26.486,13259.7
6488395603,0.634768,2.223,107.656,-0.0365007,-0.433348,0.867783,2.46871,-0.755529,-0.0925607,4.21882,0.611198,1.71044,3.7,-2.3,0,12727,50.063,26.486,13259.7
6488495950,0.634768,2.223,107.641,-0.0480644,-0.419397,0.869375,2.72799,-0.365203,-0.0897837,4.03476,0.60284,1.96089,3.7,-2.3,0,12727,50.063,26.486,13259.7
6488596327,0.634768,2.223,107.63,-0.0680331,-0.404319,0.871682,2.96999,-0.00549233,-0.0703446,3.76239,0.521098,1.83786,3.7,-2.3,0,12727,50.063,26.486,13259.7
6488696736,0.634768,2.223,107.637,-0.0848746,-0.359814,0.87302,3.2203,0.328427,-0.04387,3.6496,0.289535,1.38204,0.4,-4.2,0,12727,50.063,26.486,13259.7
6488797091,0.634769,2.223,107.651,-0.107535,-0.284496,0.870695,3.42168,0.602586,-0.0104747,2.98652,0.243735,1.57315,0.4,-4.2,0,12727,50.063,26.486,13259.7
6488897443,0.634769,2.223,107.673,-0.176279,-0.0309204,0.869671,3.62153,0.808707,0.157675,2.18451,-0.218431,0.879399,0.4,-4.2,0,12727,49.957,26.088,13032.8
6488997778,0.634769,2.223,107.706,-0.254712,0.177568,0.839547,3.62658,0.70124,0.124624,-1.33781,-1.23317,-1.28179,0.4,-4.2,0,12727,49.957,26.088,13032.8
6489098122,0.634769,2.223,107.726,-0.316226,0.262823,0.813111,3.56533,0.446206,-0.0506825,-2.50673,-1.567,0.243677,0.4,-4.2,0,12727,49.957,26.088,13032.8
6489199385,0.634769,2.223,107.731,-0.34853,0.291157,0.798117,3.51197,0.0734766,-0.0859106,-2.92789,-1.87056,1.79084,0.4,-4.2,0,12727,49.957,26.088,13032.8
6489306381,0.634769,2.223,107.744,-0.364095,0.289544,0.792973,3.46001,-0.338904,-0.0925751,-3.12595,-2.06693,1.84638,0.4,-4.2,0,12727,49.957,26.088,13032.8
6489408626,0.634769,2.223,107.745,-0.354312,0.256551,0.798655,3.41,-0.762237,-0.103117,-3.2232,-2.32358,1.39974,0.4,-4.2,0,12727,49.957,26.088,13032.8
6489508987,0.634769,2.223,107.743,-0.323973,0.209975,0.811206,3.39092,-1.14277,-0.0796564,-2.59497,-2.11052,1.60644,0.4,-4.2,0,12727,49.957,26.088,13032.8
6489609355,0.634769,2.223,107.747,-0.292183,0.161607,0.824194,3.35633,-1.51114,-0.0512607,-2.06603,-1.62831,0.79938,0.4,-4.2,0,12727,49.957,26.088,13032.8
6489709785,0.634769,2.223,107.744,-0.259452,0.107351,0.837405,3.35204,-1.7505,-0.0258157,-1.46044,-1.45576,0.744676,1.3,4.4,0,12727,49.957,26.088,13032.8
6489810168,0.634769,2.223,107.747,-0.222599,0.0622714,0.84528,3.38428,-1.92561,0.00234162,-0.733809,-1.18987,1.03989,1.3,4.4,0,12727,49.957,26.088,13032.8
6489910529,0.634769,2.223,107.752,-0.0135281,0.0119186,0.855946,3.39796,-2.02644,0.0920302,-0.288033,-0.337741,0.643691,1.3,4.4,0,12727,49.865,27.307,13616.6
6490010888,0.634769,2.223,107.769,0.25587,-0.0198805,0.856421,3.20916,-1.86521,0.180525,0.299079,2.62269,1.36877,1.3,4.4,0,12727,49.865,27.307,13616.6
6490111396,0.634769,2.223,107.772,0.377815,-0.0215016,0.858217,2.88471,-1.58447,0.143958,0.298503,4.42428,0.351979,1.3,4.4,0,12727,49.865,27.307,13616.6
6490213357,0.634769,2.223,107.765,0.398312,-0.0348484,0.854026,2.55582,-1.30774,-0.0206402,0.220353,4.23697,1.03374,1.3,4.4,0,12727,49.865,27.307,13616.6
6490313751,0.634769,2.223,107.76,0.409003,-0.0465306,0.84999,2.20828,-0.969866,-0.0507128,0.446567,4.58961,1.5063,1.3,4.4,0,12727,49.865,27.307,13616.6
6490414082,0.634769,2.223,107.746,0.417222,-0.0443144,0.851795,1.88371,-0.627557,-0.131898,0.548194,4.42388,1.52594,1.3,4.4,0,12727,49.865,27.307,13616.6
6490514428,0.634769,2.223,107.71,0.429499,-0.0365099,0.85368,1.51954,-0.257859,-0.151081,0.500106,4.73864,2.01537,1.3,4.4,0,12727,49.865,27.307,13616.6
6490614772,0.634769,2.223,107.663,0.44265,-0.0277222,0.856836,1.12791,0.113748,-0.17618,0.280413,4.73175,2.36874,1.3,4.4,0,12727,49.865,27.307,13616.6
6490715230,0.634769,2.223,107.622,0.455116,-0.0211946,0.859224,0.7084,0.493197,-0.199905,0.231821,4.93377,2.34612,-4.2,-4,0,12727,49.865,27.307,13616.6
6490815554,0.634769,2.223,107.605,0.45704,0.001601,0.865345,0.274516,0.895602,-0.187245,0.341952,4.77661,3.31418,-4.2,-4,0,12727,49.865,27.307,13616.6
6490915872,0.634769,2.223,107.603,0.35385,0.117691,0.877568,-0.244818,1.30809,-0.00217298,-0.22747,5.03222,4.21586,-4.2,-4,0,12727,49.864,26.939,13432.9
6491016265,0.634769,2.223,107.612,0.111901,0.218752,0.855884,-0.686132,1.46323,0.062897,-1.78056,3.68795,-0.0332811,-4.2,-4,0,12727,49.864,26.939,13432.9
6491116624,0.634769,2.223,107.623,-0.143879,0.269074,0.828093,-0.896245,1.35747,-0.0785487,-2.47933,0.205594,-0.751469,-4.2,-4,0,12727,49.864,26.939,13432.9
6491216980,0.634769,2.223,107.614,-0.320838,0.289694,0.807391,-0.936982,1.08068,-0.210061,-2.40409,-1.71283,1.41053,-4.2,-4,0,12727,49.864,26.939,13432.9
6491317310,0.634769,2.223,107.607,-0.405302,0.283135,0.800894,-0.91462,0.620957,-0.172863,-2.72031,-2.74182,2.90579,-4.2,-4,0,12727,49.864,26.939,13432.9
6491417643,0.634769,2.223,107.61,-0.427295,0.269976,0.805262,-0.836791,0.124804,-0.095293,-2.55801,-3.05814,3.20143,-4.2,-4,0,12727,49.864,26.939,13432.9
6491517969,0.634769,2.223,107.597,-0.422429,0.253479,0.814702,-0.743747,-0.353729,-0.0341584,-2.5499,-3.31123,2.445,-4.2,-4,0,12727,49.864,26.939,13432.9
6491618273,0.634769,2.223,107.568,-0.409561,0.233088,0.823631,-0.628973,-0.795284,0.00219242,-2.11141,-3.08125,2.51682,-4.2,-4,0,12727,49.864,26.939,13432.9
6491718680,0.634769,2.223,107.578,-0.398563,0.217885,0.828941,-0.497022,-1.19554,0.0263192,-1.80094,-2.98919,2.19452,4.2,1.8,0,12727,49.864,26.939,13432.9
6491819023,0.634769,2.223,107.607,-0.369654,0.188013,0.837094,-0.373701,-1.58487,0.0550851,-1.78473,-2.84643,1.85857,4.2,1.8,0,12727,49.864,26.939,13432.9
6491919443,0.634769,2.223,107.624,-0.226588,-0.00290884,0.854519,-0.236397,-1.95762,0.179767,-1.37209,-2.66847,1.50583,4.2,1.8,0,12712,50.007,25.981,12992.3
6492019814,0.634769,2.223,107.647,-0.0221042,-0.250676,0.851842,-0.0978023,-1.96707,0.181792,1.36788,-0.586577,0.485967,4.2,1.8,0,12712,50.007,25.981,12992.3
6492120187,0.634769,2.223,107.678,0.097977,-0.383029,0.83004,0.0519175,-1.65148,0.130715,3.88943,1.37574,-0.338329,4.2,1.8,0,12712,50.007,25.981,12992.3
6492220529,0.634769,2.223,107.707,0.154772,-0.435262,0.812936,0.186383,-1.27051,-0.0678757,4.12744,1.83841,0.773814,4.2,1.8,0,12712,50.007,25.981,12992.3
6492320841,0.634769,2.223,107.7,0.191833,-0.450137,0.805031,0.354266,-0.776969,-0.0963695,4.40036,2.10892,2.53161,4.2,1.8,0,12712,50.007,25.981,12992.3
6492421140,0.634769,2.223,107.683,0.216396,-0.444132,0.803931,0.509234,-0.225203,-0.0991785,4.53067,2.41415,2.55346,4.2,1.8,0,12712,50.007,25.981,12992.3
6492521548,0.634769,2.223,107.671,0.228788,-0.428527,0.805477,0.620376,0.335321,-0.0974003,4.34335,2.76597,2.51279,4.2,1.8,0,12712,50.007,25.981,12992.3
6492621856,0.634769,2.223,107.654,0.227139,-0.413976,0.808443,0.722025,0.895607,-0.0868238,4.16357,2.71107,2.75866,4.2,1.8,0,12712,50.007,25.981,12992.3
6492722267,0.634769,2.223,107.645,0.217988,-0.398323,0.813514,0.799259,1.45485,-0.0495339,3.96394,2.78001,2.56031,-1.5,-4.3,0,12712,50.007,25.981,12992.3
6492822628,0.634769,2.223,107.644,0.188695,-0.366962,0.821433,0.867945,1.97787,-0.0284654,3.60209,2.5815,2.39228,-1.5,-4.3,0,12712,50.007,25.981,12992.3
6492922946,0.634769,2.223,107.626,0.0415943,-0.190161,0.863067,0.941427,2.47341,0.0598696,3.37671,2.27135,2.13651,-1.5,-4.3,0,12712,50.007,25.981,12992.3
6493023299,0.634769,2.223,107.61,-0.17388,0.0674504,0.859347,0.984697,2.60994,0.061457,0.622018,0.0802162,-0.197471,-1.5,-4.3,0,12712,49.961,19.164,9574.53
6493123629,0.634769,2.223,107.614,-0.319115,0.204529,0.823893,1.01448,2.40049,-0.0365098,-1.80416,-1.98797,-0.174798,-1.5,-4.3,0,12712,49.961,19.164,9574.53
6493223977,0.634769,2.223,107.625,-0.395766,0.264982,0.799791,1.0689,2.02224,-0.0671457,-2.49354,-2.78337,1.72375,-1.5,-4.3,0,12712,49.961,19.164,9574.53
6493324370,0.634769,2.223,107.657,-0.424638,0.289547,0.787943,1.13611,1.56051,-0.0581413,-2.83327,-3.14743,2.34666,-1.5,-4.3,0,12712,49.961,19.164,9574.53
6493424715,0.634769,2.223,107.71,-0.4246,0.292678,0.785431,1.19762,1.05946,-0.0330351,-3.07049,-3.37491,2.31342,-1.5,-4.3,0,12712,49.961,19.164,9574.53
6493525086,0.634769,2.223,107.72,-0.414311,0.278795,0.790584,1.25193,0.580982,-0.0155952,-2.84632,-3.13727,2.29837,-1.5,-4.3,0,12712,49.961,19.164,9574.53
6493625417,0.634769,2.223,107.72,-0.404642,0.264916,0.796804,1.30546,0.117771,-1.45063e-05,-2.78498,-2.99076,2.14817,-1.5,-4.3,0,12712,49.961,19.164,9574.53
6493725823,0.634769,2.223,107.721,-0.395491,0.251762,0.802356,1.36132,-0.305691,-0.00677935,-2.47602,-2.90154,1.5964,-1.2,0.1,0,12712,49.961,19.164,9574.53
6493826185,0.634769,2.223,107.731,-0.376669,0.2388,0.805977,1.42668,-0.72632,-0.0257005,-2.34014,-2.86552,1.58746,-1.2,0.1,0,12712,49.961,19.164,9574.53
6493926505,0.634769,2.223,107.725,-0.189671,0.252452,0.83636,1.48802,-1.17224,0.0817313,-2.19429,-2.47587,3.07425,-1.2,0.1,0,12712,49.961,19.164,9574.53
6494026834,0.634769,2.223,107.742,0.130974,0.249344,0.88348,1.33119,-1.44619,0.214178,-2.40726,-0.0852053,1.97193,-1.2,0.1,0,12684,49.961,21.932,10957.4
6494127196,0.634769,2.223,107.769,0.353572,0.210148,0.896522,0.888091,-1.45911,0.354768,-2.23435,3.07461,2.48689,-1.2,0.1,0,12684,49.961,21.932,10957.4
6494227543,0.634769,2.223,107.803,0.424008,0.178109,0.888984,0.393849,-1.2823,0.33612,-1.52731,4.74761,1.62824,-1.2,0.1,0,12684,49.961,21.932,10957.4
6494327881,0.634769,2.223,107.852,0.360383,0.137567,0.86915,-0.047205,-1.0894,0.201318,-1.44026,4.99162,-0.387566,-1.2,0.1,0,12684,49.961,21.932,10957.4
6494428260,0.634769,2.223,107.881,0.223181,0.0833647,0.85059,-0.320509,-0.95414,-0.100245,-0.804937,3.52491,-2.5164,-1.2,0.1,0,12684,49.961,21.932,10957.4
6494528556,0.634769,2.223,107.872,0.100403,0.0509247,0.848073,-0.49017,-0.850375,-0.306898,-0.250212,2.00275,-0.674407,-1.2,0.1,0,12684,49.961,21.932,10957.4
6494628932,0.634769,2.223,107.846,0.013877,0.0187733,0.849406,-0.594828,-0.774406,-0.366763,0.130084,0.853655,-0.0706011,-1.2,0.1,0,12684,49.961,21.932,10957.4
6494729354,0.634769,2.223,107.778,-0.0201485,0.0097352,0.853696,-0.611211,-0.722443,-0.33067,0.362784,0.40914,0.500957,-1.3,0.3,0,12684,49.961,21.932,10957.4
6494829715,0.634769,2.223,107.701,-0.0224744,0.021545,0.855409,-0.629642,-0.676138,-0.282971,0.344248,0.308357,0.812834,-1.3,0.3,0,12684,49.961,21.932,10957.4
6494930110,0.634769,2.223,107.653,-0.00120209,0.0426886,0.855621,-0.680902,-0.632237,-0.19619,0.0830783,0.636653,0.572143,-1.3,0.3,0,12684,49.961,21.932,10957.4
6495030469,0.634769,2.223,107.613,-0.00429313,0.054101,0.855136,-0.754031,-0.58986,-0.14835,-0.110854,0.674353,0.666644,-1.3,0.3,0,12684,49.961,21.932,10957.4
6495130864,0.634769,2.223,107.582,-0.0125364,0.0609126,0.854379,-0.818184,-0.561429,-0.0944949,-0.192633,0.541172,0.595862,-1.3,0.3,0,12684,49.961,21.932,10957.4
6495231225,0.634769,2.223,107.559,-0.0235425,0.0666402,0.85371,-0.872814,-0.553081,-0.0612625,-0.262901,0.361438,0.67273,-1.3,0.3,0,12684,49.961,21.932,10957.4
6495331574,0.634769,2.223,107.564,-0.0297689,0.0716165,0.853811,-0.917854,-0.549974,-0.0305582,-0.284451,0.306828,0.379143,-1.3,0.3,0,12684,49.961,21.932,10957.4
6495431920,0.634769,2.223,107.58,-0.0375446,0.0727503,0.854937,-0.962933,-0.558808,0.000258401,-0.395832,0.210505,0.28066,-1.3,0.3,0,12684,49.961,21.932,10957.4
6495532313,0.634769,2.223,107.593,-0.0421686,0.0700372,0.855945,-0.995863,-0.566622,0.0203867,-0.335374,0.165913,0.245688,-1.3,0.3,0,12668,49.724,28.457,14150
6495632674,0.634769,2.223,107.612,-0.0490323,0.0682511,0.85582,-1.03016,-0.5751,0.0319676,-0.359131,0.163087,0.120206,-1.3,0.3,0,12668,49.724,28.457,14150
6495733093,0.634769,2.223,107.617,-0.0551169,0.0690871,0.856034,-1.05175,-0.590591,0.0265849,-0.316861,0.0143564,0.0660396,4,-3.2,0,12668,49.724,28.457,14150
6495833450,0.634769,2.223,107.62,-0.0683204,0.0431261,0.85295,-1.0834,-0.607327,0.00273762,-0.409274,0.0801411,0.0131076,4,-3.2,0,12668,49.724,28.457,14150
6495933808,0.634769,2.223,107.634,-0.141098,-0.105094,0.857231,-1.08133,-0.608302,0.0465782,0.369715,-0.194446,0.0198802,4,-3.2,0,12668,49.724,28.457,14150
6496034217,0.634769,2.223,107.646,-0.228992,-0.248136,0.880059,-0.869007,-0.529617,-0.0135598,2.14272,-1.20769,-0.0548689,4,-3.2,0,12668,49.724,28.457,14150
6496134574,0.634769,2.223,107.654,-0.275706,-0.316402,0.895747,-0.518279,-0.411419,-0.0462228,2.97995,-1.69258,1.41837,4,-3.2,0,12668,49.724,28.457,14150
6496234889,0.634769,2.223,107.654,-0.303537,-0.342174,0.902606,-0.0986139,-0.279695,-0.0365886,3.36583,-2.0855,1.83335,4,-3.2,0,12668,49.724,28.457,14150
6496335187,0.634769,2.223,107.642,-0.314438,-0.343675,0.902538,0.350702,-0.161596,-0.0343221,3.40772,-2.19825,2.0383,4,-3.2,0,12668,49.724,28.457,14150
6496435537,0.634769,2.223,107.632,-0.311913,-0.334353,0.898577,0.785014,-0.0627137,-0.0362856,3.15561,-2.19042,2.10744,4,-3.2,0,12668,49.724,28.457,14150
6496535884,0.634769,2.223,107.636,-0.294963,-0.327464,0.897034,1.21274,0.0381431,-0.0109258,3.09945,-2.17193,1.8472,4,-3.2,0,12639,49.965,26.393,13187.3
6496636273,0.634769,2.223,107.641,-0.286759,-0.3267,0.898965,1.61439,0.159974,0.00274626,3.13194,-1.83309,1.67781,4,-3.2,0,12639,49.965,26.393,13187.3
6496736622,0.634769,2.223,107.645,-0.288529,-0.313818,0.897699,1.9985,0.283106,0.00391899,3.0951,-1.80714,1.36351,-4.4,-2.5,0,12639,49.965,26.393,13187.3
6496836913,0.634769,2.223,107.645,-0.277758,-0.276834,0.895335,2.37825,0.388093,0.00327472,2.9583,-1.85966,1.49571,-4.4,-2.5,0,12639,49.965,26.393,13187.3
6496937257,0.634769,2.223,107.656,-0.188626,-0.0397779,0.878346,2.76278,0.478148,0.138452,2.47677,-1.7927,1.38926,-4.4,-2.5,0,12639,49.965,26.393,13187.3
6497037603,0.634769,2.223,107.681,-0.0954741,0.257542,0.856994,2.77943,0.384391,0.153505,-1.35148,-0.609034,-0.399641,-4.4,-2.5,0,12639,49.965,26.393,13187.3
6497139377,0.634769,2.223,107.702,-0.0522393,0.390039,0.847179,2.57093,0.163118,0.0510458,-3.50783,0.215496,-0.291806,-4.4,-2.5,0,12639,49.965,26.393,13187.3
6497244573,0.63477,2.223,107.703,-0.053106,0.447455,0.840778,2.28879,-0.121215,-0.0310353,-3.95965,0.329632,1.52754,-4.4,-2.5,0,12639,49.965,26.393,13187.3
6497344940,0.63477,2.223,107.719,-0.0606102,0.467449,0.835907,1.96522,-0.454818,-0.0686854,-4.44353,0.264841,1.4903,-4.4,-2.5,0,12639,49.965,26.393,13187.3
6497445296,0.63477,2.223,107.744,-0.072468,0.465696,0.832642,1.65386,-0.791948,-0.113917,-4.24754,0.163739,1.88278,-4.4,-2.5,0,12639,49.965,26.393,13187.3
6497545692,0.63477,2.223,107.73,-0.0787769,0.443812,0.831616,1.34866,-1.151,-0.0936157,-4.03865,-0.0238014,2.20013,-4.4,-2.5,0,12639,49.949,26.821,13396.8
6497646071,0.63477,2.223,107.706,-0.0851602,0.422789,0.831587,1.05006,-1.48265,-0.0721051,-3.88989,0.106378,1.90347,-4.4,-2.5,0,12639,49.949,26.821,13396.8
6497746410,0.63477,2.223,107.694,-0.0983834,0.409932,0.83154,0.761246,-1.80885,-0.0602789,-3.70573,0.030664,1.65,-3.4,0.4,0,12639,49.949,26.821,13396.8
6497846786,0.63477,2.223,107.684,-0.097646,0.395687,0.831533,0.497817,-2.12036,-0.0421021,-3.36908,0.0137806,1.91412,-3.4,0.4,0,12639,49.949,26.821,13396.8
6497947056,0.63477,2.223,107.682,0.0513056,0.344844,0.859886,0.208973,-2.45357,0.0694395,-3.31515,0.101412,2.73531,-3.4,0.4,0,12639,49.949,26.821,13396.8
6498047359,0.63477,2.223,107.701,0.210422,0.294206,0.889783,-0.168194,-2.58392,0.118642,-3.05542,2.1601,0.285265,-3.4,0.4,0,12639,49.949,26.821,13396.8
6498147674,0.63477,2.223,107.718,0.275665,0.267159,0.895185,-0.559818,-2.56973,-0.00344627,-2.35734,3.22291,0.297709,-3.4,0.4,0,12639,49.949,26.821,13396.8
6498248076,0.63477,2.223,107.713,0.268477,0.23889,0.88894,-0.99689,-2.51553,-0.0508,-2.01244,3.39929,1.36038,-3.4,0.4,0,12639,49.949,26.821,13396.8
6498348441,0.63477,2.223,107.706,0.222847,0.194925,0.876102,-1.39171,-2.45288,-0.0623307,-1.68903,3.14805,0.971429,-3.4,0.4,0,12639,49.949,26.821,13396.8
6498448749,0.63477,2.223,107.709,0.166982,0.154937,0.86722,-1.68608,-2.39365,-0.0628761,-1.19976,2.41371,0.598134,-3.4,0.4,0,12639,49.949,26.821,13396.8
6498549076,0.63477,2.223,107.683,0.116931,0.120052,0.862485,-1.9422,-2.32129,-0.06528,-0.65629,1.85651,0.261866,-3.4,0.4,0,12639,49.949,26.821,13396.8
6498649351,0.634769,2.223,107.646,0.0785887,0.102702,0.860102,-2.05846,-2.27461,-0.0719387,-0.398404,1.43422,0.210048,-3.4,0.4,0,12639,49.878,26.401,13168.3
6498749735,0.634769,2.223,107.619,0.0522227,0.0991533,0.860705,-2.21111,-2.21282,-0.053703,-0.281722,1.17086,0.119121,-0.6,-1.3,0,12639,49.878,26.401,13168.3
6498850104,0.634769,2.223,107.596,0.0244135,0.077247,0.858553,-2.30596,-2.18106,-0.047523,-0.328438,0.836989,0.522536,-0.6,-1.3,0,12639,49.878,26.401,13168.3
6498950465,0.634769,2.223,107.587,-0.0909035,-0.115029,0.860168,-2.33856,-2.12872,0.0314706,0.606139,0.323749,0.912957,-0.6,-1.3,0,12639,49.878,26.401,13168.3
6499050798,0.634769,2.223,107.581,-0.210272,-0.278191,0.88787,-2.09857,-1.97644,0.0147386,2.9067,-1.04918,0.0818248,-0.6,-1.3,0,12639,49.878,26.401,13168.3
6499151110,0.634769,2.223,107.593,-0.28409,-0.340551,0.911885,-1.70138,-1.79161,-0.0515159,3.69612,-1.77287,1.83855,-0.6,-1.3,0,12639,49.878,26.401,13168.3
6499251484,0.634769,2.223,107.597,-0.28391,-0.320252,0.913235,-1.21836,-1.60927,-0.0352064,3.85782,-2.11608,2.54812,-0.6,-1.3,0,12639,49.878,26.401,13168.3
6499351795,0.634769,2.223,107.583,-0.245508,-0.249376,0.897923,-0.806248,-1.4631,0.00535234,3.3126,-1.88948,1.58076,-0.6,-1.3,0,12639,49.878,26.401,13168.3
6499453381,0.634769,2.223,107.57,-0.204697,-0.176165,0.882222,-0.505472,-1.34734,0.0235195,2.47796,-1.3917,0.960544,-0.6,-1.3,0,12639,49.878,26.401,13168.3
6499554227,0.634769,2.223,107.564,-0.172868,-0.111884,0.870519,-0.275401,-1.27384,0.0246032,1.73111,-1.12479,0.821329,-0.6,-1.3,0,12639,49.878,26.401,13168.3
6499654561,0.634769,2.223,107.561,-0.152545,-0.0674484,0.863629,-0.108592,-1.22406,0.0256832,1.2362,-0.893,0.0637379,-0.6,-1.3,0,12639,49.783,27.108,13495.2
6499754945,0.634769,2.223,107.573,-0.143219,-0.0336949,0.858769,0.0166177,-1.19701,0.0293229,0.789436,-0.672443,0.401019,2.7,-3.1,0,12639,49.783,27.108,13495.2
6499855264,0.634769,2.223,107.592,-0.141247,-0.0350577,0.855064,0.115994,-1.19586,0.0328446,0.37468,-0.644241,0.23034,2.7,-3.1,0,12639,49.783,27.108,13495.2
6499955617,0.634769,2.223,107.594,-0.172055,-0.142918,0.861005,0.231526,-1.18489,0.0422308,0.915904,-0.755729,-0.023512,2.7,-3.1,0,12639,49.783,27.108,13495.2
6500055969,0.634769,2.223,107.594,-0.213129,-0.244212,0.877867,0.459832,-1.09902,0.00420675,2.08014,-1.12874,0.572984,2.7,-3.1,0,12639,49.783,27.108,13495.2
6500156354,0.634769,2.223,107.584,-0.245417,-0.305588,0.891345,0.784743,-0.970685,-0.0253913,2.85713,-1.42492,1.03026,2.7,-3.1,0,12639,49.783,27.108,13495.2
6500256707,0.634769,2.223,107.575,-0.261433,-0.330221,0.898518,1.154,-0.818984,-0.0294532,3.26675,-1.57626,1.51005,2.7,-3.1,0,12639,49.783,27.108,13495.2
6500357060,0.634769,2.223,107.565,-0.263683,-0.329235,0.900164,1.54468,-0.659608,-0.0187008,3.20921,-1.53862,1.99649,2.7,-3.1,0,12639,49.783,27.108,13495.2
6500457457,0.634769,2.223,107.556,-0.268702,-0.319759,0.899582,1.91558,-0.511336,-0.00178555,3.10329,-1.5675,1.81403,2.7,-3.1,0,12639,49.783,27.108,13495.2
6500557794,0.634769,2.223,107.562,-0.27001,-0.299492,0.895659,2.27461,-0.373835,0.0254929,3.0506,-1.64608,1.28442,2.7,-3.1,0,12639,49.783,27.108,13495.2
6500658110,0.634769,2.223,107.575,-0.254363,-0.260918,0.887017,2.60413,-0.267317,0.048558,2.70592,-1.63852,1.0985,2.7,-3.1,0,12639,49.89,25.485,12714.5
6500758509,0.634769,2.223,107.59,-0.23482,-0.222693,0.879776,2.88692,-0.176824,0.0625721,2.29599,-1.35456,0.908889,-2.5,-4.8,0,12639,49.89,25.485,12714.5
6500858866,0.63477,2.223,107.601,-0.208354,-0.153803,0.870142,3.13426,-0.0928798,0.0600309,1.93746,-1.02661,1.28214,-2.5,-4.8,0,12639,49.89,25.485,12714.5
6500959235,0.63477,2.223,107.611,-0.170435,0.0755644,0.859969,3.35282,-0.0610909,0.256692,1.21582,-1.14425,1.18825,-2.5,-4.8,0,12639,49.89,25.485,12714.5
6501059583,0.63477,2.223,107.638,-0.159527,0.275077,0.842032,3.29953,-0.210921,0.22024,-1.99956,-0.725773,-0.757499,-2.5,-4.8,0,12639,49.89,25.485,12714.5
6501159882,0.63477,2.223,107.671,-0.174312,0.368622,0.823631,3.14701,-0.457251,0.089038,-3.40395,-0.613551,-0.682216,-2.5,-4.8,0,12639,49.89,25.485,12714.5
6501260281,0.63477,2.223,107.683,-0.214593,0.402847,0.810356,2.965,-0.758937,-0.0553311,-3.48627,-0.639731,1.02958,-2.5,-4.8,0,12639,49.89,25.485,12714.5
6501360612,0.63477,2.223,107.696,-0.240296,0.404536,0.803648,2.77802,-1.15078,-0.0882407,-3.8582,-1.0087,1.65183,-2.5,-4.8,0,12639,49.89,25.485,12714.5
6501460949,0.63477,2.223,107.716,-0.257153,0.394683,0.79999,2.60542,-1.55196,-0.109803,-3.70778,-1.18097,1.80973,-2.5,-4.8,0,12639,49.89,25.485,12714.5
6501561411,0.63477,2.223,107.693,-0.267901,0.376334,0.801234,2.44134,-1.96189,-0.105225,-3.59487,-1.21155,1.92627,-2.5,-4.8,0,12639,49.89,25.485,12714.5
6501666600,0.63477,2.223,107.656,-0.282183,0.364596,0.800846,2.29731,-2.36539,-0.0998969,-3.41634,-1.30015,1.97301,-2.5,-4.8,0,12639,49.881,24.676,12308.6
6501767041,0.63477,2.223,107.651,-0.290191,0.351142,0.802309,2.15893,-2.76989,-0.0869231,-3.37155,-1.40536,1.71033,2.5,-1.9,0,12639,49.881,24.676,12308.6
6501867404,0.63477,2.223,107.647,-0.299352,0.325535,0.806872,2.02412,-3.17481,-0.0713827,-3.27198,-1.39977,1.68837,2.5,-1.9,0,12639,49.881,24.676,12308.6
6501967764,0.63477,2.223,107.644,-0.19893,0.149377,0.834231,1.90923,-3.5747,-0.0347447,-2.95699,-1.24078,2.02627,2.5,-1.9,0,12639,49.881,24.676,12308.6
6502068118,0.63477,2.223,107.66,-0.034333,-0.122117,0.850092,1.86307,-3.69949,0.0654359,-0.538178,-0.203987,0.967888,2.5,-1.9,0,12639,49.881,24.676,12308.6
6502168504,0.63477,2.223,107.679,0.0764729,-0.294295,0.839641,1.88367,-3.45239,0.114722,2.41817,1.61543,0.141572,2.5,-1.9,0,12639,49.881,24.676,12308.6
6502268862,0.63477,2.223,107.673,0.117627,-0.375815,0.831273,1.92816,-3.09681,0.00626676,3.36309,1.99166,0.626065,2.5,-1.9,0,12639,49.881,24.676,12308.6
6502369210,0.63477,2.223,107.66,0.136828,-0.412399,0.828293,2.02204,-2.64943,-0.0175283,3.92096,2.14519,1.84639,2.5,-1.9,0,12639,49.881,24.676,12308.6
6502469614,0.63477,2.223,107.636,0.142264,-0.41962,0.829528,2.13145,-2.15225,-0.0472436,4.11871,2.29187,2.06261,2.5,-1.9,0,12639,49.881,24.676,12308.6
6502569907,0.63477,2.223,107.61,0.133274,-0.419618,0.833286,2.23326,-1.65058,-0.0600085,4.07819,2.32285,2.10967,2.5,-1.9,0,12639,49.881,24.676,12308.6
6502670273,0.63477,2.223,107.589,0.109868,-0.396054,0.840271,2.34423,-1.15024,-0.0655939,4.021,2.24295,2.19909,2.5,-1.9,0,12639,49.824,26.238,13072.8
6502770669,0.63477,2.223,107.572,0.0749986,-0.349073,0.8484,2.47568,-0.611642,-0.0538825,3.64206,1.83077,1.31761,3.9,1.1,0,12639,49.824,26.238,13072.8
6502871303,0.63477,2.223,107.569,0.0510232,-0.291399,0.852502,2.57103,-0.234568,-0.036829,2.87022,1.51719,1.50661,3.9,1.1,0,12639,49.824,26.238,13072.8
6502975126,0.63477,2.223,107.577,0.14623,-0.253738,0.83035,2.6148,0.0968518,0.0103801,2.22796,1.8549,1.41292,3.9,1.1,0,12639,49.824,26.238,13072.8
6503075469,0.63477,2.223,107.597,0.254221,-0.24257,0.821532,2.55645,0.492512,0.0432047,2.13395,2.88994,1.453,3.9,1.1,0,12639,49.824,26.238,13072.8
6503175856,0.63477,2.223,107.609,0.31021,-0.240745,0.82069,2.42592,0.945084,0.0284021,2.1815,3.70423,1.17171,3.9,1.1,0,12639,49.824,26.238,13072.8
6503276240,0.634771,2.223,107.615,0.328082,-0.24713,0.820162,2.26544,1.41985,0.00865614,2.1776,3.97377,1.59289,3.9,1.1,0,12639,49.824,26.238,13072.8
6503377424,0.634771,2.223,107.623,0.318413,-0.248902,0.823173,2.09827,1.90189,-0.0125563,2.21918,4.0022,1.74329,3.9,1.1,0,12639,49.824,26.238,13072.8
6503477834,0.634771,2.223,107.624,0.267513,-0.225298,0.834272,1.9472,2.35207,-0.0404817,1.99626,3.67594,1.39325,3.9,1.1,0,12639,49.824,26.238,13072.8
6503578202,0.634771,2.223,107.617,0.206994,-0.198354,0.84199,1.82546,2.73657,-0.0416535,1.89525,3.12862,0.982422,3.9,1.1,0,12639,49.824,26.238,13072.8
6503678562,0.634771,2.223,107.619,0.146076,-0.168327,0.848197,1.72477,3.04503,-0.0482659,1.43987,2.49188,0.799558,3.9,1.1,0,12639,49.824,26.238,13072.8
6503778903,0.634771,2.223,107.622,0.0933439,-0.14158,0.851879,1.65774,3.28935,-0.0369981,1.21719,1.91398,0.47447,-2.5,-4.1,0,12594,49.844,25.03,12476
6503879256,0.634771,2.223,107.627,0.037157,-0.0948642,0.85282,1.60232,3.47085,-0.021978,0.903156,1.47867,0.503645,-2.5,-4.1,0,12594,49.844,25.03,12476
6503979582,0.634771,2.223,107.631,-0.111936,0.0983184,0.850677,1.56633,3.57998,0.0495558,0.152451,0.796501,0.531326,-2.5,-4.1,0,12594,49.844,25.03,12476
6504079925,0.634771,2.223,107.641,-0.239258,0.241331,0.82648,1.50731,3.37083,0.0146226,-2.17626,-1.22194,-0.337608,-2.5,-4.1,0,12594,49.844,25.03,12476
6504180231,0.634771,2.223,107.639,-0.317453,0.317765,0.803808,1.44768,3.00138,-0.0500418,-2.94723,-1.7602,1.83223,-2.5,-4.1,0,12594,49.844,25.03,12476
6504280523,0.634771,2.223,107.643,-0.3504,0.355227,0.790645,1.38623,2.49504,-0.0308116,-3.77636,-2.47192,2.3698,-2.5,-4.1,0,12594,49.844,25.03,12476
6504380890,0.634771,2.223,107.659,-0.358011,0.366399,0.785783,1.32298,1.95257,-0.0273859,-3.82988,-2.56426,2.59905,-2.5,-4.1,0,12594,49.844,25.03,12476
6504481214,0.634771,2.223,107.655,-0.353293,0.360823,0.786554,1.25465,1.41306,-0.0145447,-3.80544,-2.55183,2.54767,-2.5,-4.1,0,12594,49.844,25.03,12476
6504581574,0.634771,2.223,107.647,-0.348872,0.349393,0.79021,1.18477,0.893443,-0.0123459,-3.67251,-2.28092,2.38945,-2.5,-4.1,0,12594,49.844,25.03,12476
6504681872,0.634771,2.223,107.651,-0.343691,0.339327,0.793872,1.12316,0.393939,-0.00680371,-3.59649,-2.33123,1.98693,-2.5,-4.1,0,12594,49.844,25.03,12476
6504782272,0.634771,2.223,107.661,-0.339319,0.323826,0.798259,1.07635,-0.0930517,-0.0153093,-3.35875,-2.34406,2.01012,-1.5,3.8,0,12594,49.824,24.641,12277.1
6504882641,0.634771,2.223,107.668,-0.324667,0.306116,0.80343,1.03916,-0.567562,-0.000659907,-3.16174,-2.20611,2.0471,-1.5,3.8,0,12594,49.824,24.641,12277.1
6504982960,0.634771,2.223,107.672,-0.138706,0.260211,0.847651,1.00442,-1.04324,0.0974746,-2.86339,-1.95534,2.83023,-1.5,3.8,0,12594,49.824,24.641,12277.1
6505083321,0.634771,2.223,107.689,0.165177,0.168925,0.886019,0.836643,-1.27625,0.164334,-2.3348,0.433567,0.59561,-1.5,3.8,0,12594,49.824,24.641,12277.1
6505183669,0.634771,2.223,107.705,0.367362,0.0964484,0.880623,0.487897,-1.20019,0.167381,-1.33809,3.57085,0.503438,-1.5,3.8,0,12594,49.824,24.641,12277.1
6505284043,0.634771,2.223,107.71,0.446493,0.0618147,0.86863,0.121551,-0.984376,0.00724698,-0.520579,4.66254,0.495775,-1.5,3.8,0,12594,49.824,24.641,12277.1
6505384358,0.634771,2.223,107.703,0.475439,0.0505454,0.862564,-0.302094,-0.695305,-0.0869188,-0.452869,4.95121,2.0278,-1.5,3.8,0,12594,49.824,24.641,12277.1
6505484711,0.634771,2.223,107.679,0.474846,0.0586205,0.863676,-0.76123,-0.374914,-0.117816,-0.419051,4.99275,2.57876,-1.5,3.8,0,12594,49.824,24.641,12277.1
6505585051,0.634771,2.223,107.65,0.469572,0.0780173,0.870267,-1.22452,-0.0645466,-0.141614,-0.572942,5.08432,2.21945,-1.5,3.8,0,12594,49.824,24.641,12277.1
6505685394,0.634771,2.223,107.63,0.452825,0.0886815,0.874037,-1.71463,0.24028,-0.139096,-0.772558,4.97823,2.8056,-1.5,3.8,0,12594,49.824,24.641,12277.1
6505785788,0.634771,2.223,107.617,0.431006,0.0955209,0.876721,-2.19723,0.531695,-0.10484,-0.805909,4.72416,2.68534,-4.8,-4.1,0,12594,49.807,25.852,12876.1
6505886192,0.634771,2.223,107.607,0.355661,0.094535,0.873672,-2.67142,0.80318,-0.0694406,-0.91604,4.50393,2.56802,-4.8,-4.1,0,12594,49.807,25.852,12876.1
6505986557,0.634771,2.223,107.603,0.119143,0.135588,0.856003,-3.06328,1.02088,0.0466484,-0.927778,3.67938,1.42304,-4.8,-4.1,0,12594,49.807,25.852,12876.1
6506086906,0.634771,2.223,107.612,-0.198218,0.163366,0.832853,-3.21912,0.994224,0.0445363,-1.34909,0.250176,-0.292865,-4.8,-4.1,0,12594,49.807,25.852,12876.1
6506187253,0.634771,2.223,107.616,-0.377521,0.173654,0.825247,-3.14431,0.74546,-0.0125148,-1.44785,-2.57957,0.529332,-4.8,-4.1,0,12594,49.807,25.852,12876.1
6506287593,0.63477,2.223,107.623,-0.456544,0.180253,0.823216,-2.96882,0.380159,-0.0414585,-1.57857,-3.60929,1.95688,-4.8,-4.1,0,12594,49.807,25.852,12876.1
6506387945,0.63477,2.223,107.63,-0.478399,0.182205,0.824989,-2.731,-0.0557326,-0.0354649,-1.64552,-4.15348,2.44138,-4.8,-4.1,0,12594,49.807,25.852,12876.1
6506488316,0.63477,2.223,107.617,-0.470223,0.180813,0.827343,-2.49329,-0.496093,-0.0235617,-1.64268,-4.05264,2.54847,-4.8,-4.1,0,12594,49.807,25.852,12876.1
6506588693,0.63477,2.223,107.592,-0.45252,0.18001,0.828759,-2.2573,-0.927694,-0.0056486,-1.59479,-3.93922,2.43042,-4.8,-4.1,0,12594,49.807,25.852,12876.1
6506689026,0.63477,2.223,107.59,-0.436745,0.182969,0.827726,-1.99566,-1.41154,-0.0014273,-1.48027,-3.61151,2.20063,-4.8,-4.1,0,12594,49.807,25.852,12876.1
6506789485,0.63477,2.223,107.599,-0.422224,0.186919,0.826669,-1.79707,-1.81105,0.00812709,-1.63448,-3.5898,1.78432,1.4,1,0,12594,49.674,31.005,15401.4
6506889843,0.63477,2.223,107.599,-0.395148,0.18147,0.830653,-1.61693,-2.19196,0.0178517,-1.59584,-3.26958,1.79818,1.4,1,0,12594,49.674,31.005,15401.4
6506990217,0.63477,2.223,107.598,-0.259465,0.0384189,0.847775,-1.43797,-2.54404,0.120726,-1.15528,-2.88545,1.52937,1.4,1,0,12594,49.674,31.005,15401.4
6507090569,0.63477,2.223,107.62,-0.0255313,-0.221862,0.8511,-1.28069,-2.5432,0.152476,1.32963,-0.61007,0.632721,1.4,1,0,12594,49.674,31.005,15401.4
6507190880,0.63477,2.223,107.642,0.125413,-0.374118,0.828817,-1.1358,-2.19596,0.137307,3.7934,1.53206,0.151794,1.4,1,0,12594,49.674,31.005,15401.4
6507291280,0.63477,2.223,107.653,0.190884,-0.437624,0.811469,-0.999676,-1.75275,-0.0112946,4.21578,2.06381,1.32153,1.4,1,0,12594,49.674,31.005,15401.4
6507391655,0.63477,2.223,107.656,0.21969,-0.455914,0.80472,-0.854215,-1.18386,-0.0324442,4.60571,2.5438,2.58204,1.4,1,0,12594,49.674,31.005,15401.4
6507492052,0.63477,2.223,107.646,0.229026,-0.451917,0.805723,-0.724424,-0.606824,-0.0586874,4.62087,2.68086,2.30629,1.4,1,0,12594,49.674,31.005,15401.4
6507592418,0.63477,2.223,107.631,0.22071,-0.433984,0.811089,-0.604786,-0.0251511,-0.0743936,4.45221,2.72103,2.72315,1.4,1,0,12594,49.674,31.005,15401.4
6507692739,0.63477,2.223,107.63,0.185809,-0.376545,0.826023,-0.494746,0.526882,-0.0535442,4.08045,2.47986,2.37454,1.4,1,0,12594,49.674,31.005,15401.4
6507793112,0.63477,2.223,107.627,0.1299,-0.303955,0.839901,-0.419412,0.984182,-0.0244299,3.35307,2.22851,1.5979,-0.6,5,0,12594,49.667,29.135,14470.5
6507893478,0.63477,2.223,107.618,0.0902459,-0.223607,0.848137,-0.347146,1.34388,-0.0117796,2.66862,1.5535,1.28017,-0.6,5,0,12594,49.667,29.135,14470.5
6507993837,0.63477,2.223,107.622,0.187786,-0.0689177,0.844618,-0.316397,1.63031,0.0798208,1.72978,1.62276,0.747951,-0.6,5,0,12594,49.667,29.135,14470.5
6508094153,0.63477,2.223,107.632,0.292079,0.0576812,0.860417,-0.526947,1.84123,0.028352,-0.148237,2.96846,0.0796274,-0.6,5,0,12594,49.667,29.135,14470.5
6508194576,0.63477,2.223,107.631,0.361779,0.134817,0.880732,-0.863236,2.03617,-0.0402586,-0.970023,3.61394,1.11726,-0.6,5,0,12594,49.667,29.135,14470.5
6508294931,0.63477,2.223,107.625,0.397764,0.173161,0.893167,-1.30228,2.23056,-0.058473,-1.45916,4.06796,1.86068,-0.6,5,0,12594,49.667,29.135,14470.5
6508395327,0.63477,2.223,107.629,0.410884,0.187343,0.898553,-1.79621,2.41371,-0.0575815,-1.69193,4.17611,2.30747,-0.6,5,0,12594,49.667,29.135,14470.5
6508495683,0.63477,2.223,107.622,0.4019,0.187708,0.898639,-2.31197,2.58252,-0.0450958,-1.89204,4.27791,2.27526,-0.6,5,0,12594,49.667,29.135,14470.5
6508597628,0.63477,2.223,107.609,0.352832,0.167782,0.89062,-2.8038,2.7356,-0.0266493,-1.78688,4.0917,2.04859,-0.6,5,0,12594,49.667,29.135,14470.5
6508697938,0.63477,2.223,107.606,0.287226,0.142683,0.881379,-3.22273,2.86681,0.00849276,-1.50637,3.4227,1.65264,-0.6,5,0,12594,49.667,29.135,14470.5
6508798325,0.63477,2.223,107.613,0.217246,0.112304,0.872998,-3.55363,2.95769,0.0242578,-1.24468,2.68868,0.819461,1.8,3.2,0,12594,49.519,30.476,15091.4
6508898685,0.63477,2.223,107.617,0.137954,0.0584007,0.863076,-3.79848,3.02804,0.0371685,-0.877592,1.99677,0.708291,1.8,3.2,0,12594,49.519,30.476,15091.4
6508999042,0.63477,2.223,107.622,-0.0342397,-0.136289,0.862862,-3.94747,3.09147,0.098073,-0.000669461,1.05822,0.188036,1.8,3.2,0,12594,49.519,30.476,15091.4
6509100431,0.63477,2.223,107.633,-0.176154,-0.279821,0.884244,-3.77749,3.19352,0.0494955,2.29561,-0.998421,-0.408051,1.8,3.2,0,12594,49.519,30.476,15091.4
6509205630,0.63477,2.223,107.623,-0.23587,-0.332129,0.89534,-3.4434,3.31257,-0.0411074,3.2651,-1.85644,1.12054,1.8,3.2,0,12594,49.519,30.476,15091.4
6509305983,0.63477,2.223,107.604,-0.238911,-0.323654,0.891141,-3.00655,3.42688,-0.027522,3.49615,-2.28075,2.04472,1.8,3.2,0,12594,49.519,30.476,15091.4
6509406333,0.63477,2.223,107.579,-0.205241,-0.278125,0.879037,-2.60396,3.52746,-0.0156803,3.1931,-2.13037,1.55365,1.8,3.2,0,12594,49.519,30.476,15091.4
6509506683,0.634769,2.223,107.554,-0.157911,-0.220576,0.868158,-2.27635,3.61041,-0.00243698,2.616,-1.64624,1.14533,1.8,3.2,0,12594,49.519,30.476,15091.4
6509607007,0.634769,2.223,107.529,-0.113934,-0.168573,0.861659,-2.02922,3.6706,0.00729969,2.01114,-1.26016,0.665885,1.8,3.2,0,12594,49.519,30.476,15091.4
6509707302,0.634769,2.223,107.531,-0.0807917,-0.127485,0.858816,-1.84938,3.72263,0.0164039,1.45077,-0.834241,0.367438,1.8,3.2,0,12594,49.519,30.476,15091.4
6509811423,0.634769,2.223,107.541,-0.0561255,-0.0932946,0.857525,-1.69958,3.77259,0.0393696,0.967184,-0.424642,0.519637,-3.4,2.1,0,12594,49.562,29.399,14570.7
6509914008,0.634769,2.223,107.554,-0.0421279,-0.0361751,0.855822,-1.61231,3.80533,0.0418241,0.762404,-0.273919,0.230505,-3.4,2.1,0,12594,49.562,29.399,14570.7
6510014433,0.634769,2.223,107.571,-0.0653693,0.170845,0.852246,-1.58684,3.79044,0.11036,-0.464428,-0.158736,0.257929,-3.4,2.1,0,12594,49.562,29.399,14570.7
6510114775,0.634769,2.223,107.579,-0.0964467,0.319762,0.843274,-1.69834,3.56686,0.0517201,-2.63279,-0.511942,0.0941245,-3.4,2.1,0,12594,49.562,29.399,14570.7
6510215116,0.634769,2.223,107.593,-0.114755,0.406392,0.835505,-1.86901,3.23345,0.00774761,-3.58266,-0.713489,1.22766,-3.4,2.1,0,12594,49.562,29.399,14570.7
6510315461,0.634769,2.223,107.622,-0.123994,0.442965,0.832221,-2.08914,2.82716,0.00320693,-4.08966,-0.809843,1.82318,-3.4,2.1,0,12594,49.562,29.399,14570.7
6510415856,0.634769,2.223,107.648,-0.125304,0.452081,0.831342,-2.32616,2.39866,-0.00265296,-4.2548,-0.786749,2.0236,-3.4,2.1,0,12594,49.562,29.399,14570.7
6510516220,0.634769,2.223,107.649,-0.124681,0.446667,0.831725,-2.56655,1.96869,0.00253057,-4.27594,-0.808601,1.95894,-3.4,2.1,0,12594,49.562,29.399,14570.7
6510616551,0.634769,2.223,107.635,-0.123156,0.436692,0.832498,-2.80176,1.5483,0.000982199,-4.12616,-0.753825,1.99947,-3.4,2.1,0,12594,49.562,29.399,14570.7
6510716908,0.634769,2.223,107.633,-0.121823,0.427001,0.83354,-3.01306,1.13647,-0.0126665,-3.98868,-0.911482,1.77313,-3.4,2.1,0,12594,49.562,29.399,14570.7
6510817299,0.634769,2.223,107.634,-0.112996,0.395311,0.836585,-3.23244,0.730438,-0.0111742,-3.88901,-0.862694,1.67279,-5,-4.5,0,12594,49.562,29.399,14570.7
6510917646,0.634769,2.223,107.628,-0.121277,0.319463,0.839077,-3.43188,0.373182,0.00690646,-3.37148,-0.629931,1.50725,-5,-4.5,0,12578,49.578,29.006,14380.6
6511017996,0.634769,2.223,107.63,-0.222993,0.227248,0.823264,-3.54986,0.080458,0.0444958,-2.2718,-1.00808,0.999989,-5,-4.5,0,12578,49.578,29.006,14380.6
6511118351,0.634769,2.223,107.636,-0.32607,0.164722,0.826412,-3.50179,-0.210441,0.0366315,-1.45663,-2.23075,0.818043,-5,-4.5,0,12578,49.578,29.006,14380.6
6511218719,0.634769,2.223,107.631,-0.387601,0.132283,0.834279,-3.34541,-0.513845,-0.0149019,-0.908967,-3.08606,0.924263,-5,-4.5,0,12578,49.578,29.006,14380.6
6511319000,0.634769,2.223,107.628,-0.416938,0.116459,0.840275,-3.12138,-0.850038,-0.0178904,-0.689019,-3.34663,2.00991,-5,-4.5,0,12578,49.578,29.006,14380.6
6511419357,0.634769,2.223,107.632,-0.424557,0.111727,0.84329,-2.86424,-1.19251,-0.0151468,-0.645931,-3.73387,1.58302,-5,-4.5,0,12578,49.578,29.006,14380.6
6511519728,0.634769,2.223,107.624,-0.420334,0.112631,0.843247,-2.61102,-1.52014,-0.0247464,-0.5564,-3.5079,1.87456,-5,-4.5,0,12578,49.578,29.006,14380.6
6511620093,0.634769,2.223,107.609,-0.411876,0.117795,0.841281,-2.35831,-1.84367,-0.0165174,-0.596879,-3.48276,1.86268,-5,-4.5,0,12578,49.578,29.006,14380.6
6511720444,0.634769,2.223,107.599,-0.401777,0.126715,0.837796,-2.11713,-2.15838,-0.0195289,-0.628385,-3.46464,1.44699,-5,-4.5,0,12578,49.578,29.006,14380.6
6511820775,0.634769,2.223,107.593,-0.389713,0.13583,0.835654,-1.89221,-2.46701,-0.0115085,-0.685361,-3.11884,1.79093,3.9,-4.4,0,12578,49.578,29.006,14380.6
6511921417,0.634769,2.223,107.591,-0.372949,0.133076,0.838231,-1.68654,-2.76619,0.0022379,-0.777068,-3.04926,1.47186,3.9,-4.4,0,12533,49.583,28.83,14294.8
6512023093,0.634769,2.223,107.59,-0.309457,-0.0447795,0.863212,-1.4906,-3.0771,0.0762602,-0.854348,-2.8283,2.20415,3.9,-4.4,0,12533,49.583,28.83,14294.8
6512123381,0.634769,2.223,107.611,-0.234593,-0.247297,0.877313,-1.19586,-3.09831,0.146063,1.99024,-2.01317,0.779348,3.9,-4.4,0,12533,49.583,28.83,14294.8
6512223651,0.634769,2.223,107.632,-0.196967,-0.364113,0.890431,-0.866587,-2.91946,0.0928995,3.63081,-1.23874,0.431364,3.9,-4.4,0,12533,49.583,28.83,14294.8
6512324053,0.634769,2.223,107.643,-0.185654,-0.413682,0.897806,-0.508376,-2.64534,-0.00780498,4.35084,-0.809485,1.1771,3.9,-4.4,0,12533,49.583,28.83,14294.8
6512424450,0.634769,2.223,107.648,-0.180425,-0.425399,0.902017,-0.0896614,-2.31446,-0.00713972,4.58749,-0.781744,2.33072,3.9,-4.4,0,12533,49.583,28.83,14294.8
6512524783,0.634769,2.223,107.652,-0.180625,-0.416803,0.904645,0.301758,-1.99979,-0.0236013,4.52781,-0.847578,1.54995,3.9,-4.4,0,12533,49.583,28.83,14294.8
6512625129,0.634769,2.223,107.65,-0.184341,-0.405238,0.906911,0.689569,-1.68596,-0.0414866,4.44669,-0.822165,1.74494,3.9,-4.4,0,12533,49.583,28.83,14294.8
6512725495,0.634769,2.223,107.646,-0.193281,-0.393839,0.906417,1.07299,-1.3861,-0.0484219,4.2039,-0.853087,1.86092,3.9,-4.4,0,12533,49.583,28.83,14294.8
6512826030,0.634769,2.223,107.642,-0.203026,-0.376614,0.904972,1.43859,-1.10482,-0.0605324,3.99003,-0.921667,1.62913,-1.9,-4.6,0,12533,49.583,28.83,14294.8
6512926444,0.634769,2.223,107.632,-0.211033,-0.344386,0.902103,1.79316,-0.844389,-0.0568635,3.66921,-0.96014,1.65032,-1.9,-4.6,0,12533,49.536,29.731,14727.5
6513026823,0.634769,2.223,107.629,-0.20113,-0.147191,0.893389,2.17813,-0.593325,0.0723328,3.3981,-0.963314,2.93195,-1.9,-4.6,0,12533,49.536,29.731,14727.5
6513127202,0.634769,2.223,107.64,-0.220578,0.116254,0.859703,2.31458,-0.569479,0.0885542,0.314334,-1.20748,-0.729356,-1.9,-4.6,0,12533,49.536,29.731,14727.5
6513227579,0.634769,2.223,107.645,-0.24822,0.251769,0.827302,2.29236,-0.756051,-0.0209722,-1.86554,-1.34484,-0.0279244,-1.9,-4.6,0,12533,49.536,29.731,14727.5
6513327943,0.634769,2.223,107.662,-0.269312,0.313945,0.806879,2.22385,-1.05652,-0.0340282,-2.7694,-1.50995,1.22356,-1.9,-4.6,0,12533,49.536,29.731,14727.5
6513428313,0.634769,2.223,107.701,-0.286952,0.327195,0.797021,2.12933,-1.4237,-0.0234552,-3.20469,-1.65473,1.3977,-1.9,-4.6,0,12533,49.536,29.731,14727.5
6513528656,0.634769,2.223,107.713,-0.301378,0.312034,0.795315,2.04431,-1.78708,-0.0293128,-3.10997,-1.84654,1.18599,-1.9,-4.6,0,12533,49.536,29.731,14727.5
6513629013,0.634769,2.223,107.71,-0.314839,0.290859,0.79781,1.97509,-2.23062,-0.0189047,-2.78164,-1.92864,1.61791,-1.9,-4.6,0,12533,49.536,29.731,14727.5
6513729363,0.634769,2.223,107.726,-0.321309,0.268832,0.801184,1.9505,-2.58159,-0.00976859,-2.48637,-2.1196,1.27937,-1.9,-4.6,0,12533,49.536,29.731,14727.5
6513829909,0.634769,2.223,107.75,-0.309716,0.235477,0.809577,1.93963,-2.9199,-0.00064458,-2.2342,-2.011,1.24919,-2.3,-0.9,0,12533,49.536,29.731,14727.5
6513930314,0.634769,2.223,107.756,-0.276474,0.19219,0.820584,1.9535,-3.22143,-0.00183782,-1.73154,-2.03624,1.21846,-2.3,-0.9,0,12505,49.455,30.993,15327.6
6514030643,0.634769,2.223,107.753,-0.0548293,0.168969,0.852829,1.95177,-3.49488,0.15674,-1.55911,-1.34246,1.26791,-2.3,-0.9,0,12505,49.455,30.993,15327.6
6514131001,0.634769,2.223,107.776,0.235988,0.150276,0.880218,1.71596,-3.50719,0.21868,-1.1844,1.86487,1.39755,-2.3,-0.9,0,12505,49.455,30.993,15327.6
6514231372,0.634769,2.223,107.804,0.390303,0.126492,0.881575,1.27171,-3.32592,0.260552,-1.07885,4.27399,1.66688,-2.3,-0.9,0,12505,49.455,30.993,15327.6
6514331749,0.634769,2.223,107.832,0.417899,0.112791,0.875123,0.829408,-3.07196,0.178505,-0.759097,5.02878,0.663165,-2.3,-0.9,0,12505,49.455,30.993,15327.6
6514432111,0.634769,2.223,107.847,0.354132,0.120186,0.872121,0.466343,-2.87306,-0.0470379,-0.890639,4.44391,-1.09544,-2.3,-0.9,0,12505,49.455,30.993,15327.6
6514532470,0.634769,2.223,107.838,0.269396,0.126968,0.870874,0.156357,-2.73358,-0.240318,-0.808438,3.17248,0.708961,-2.3,-0.9,0,12505,49.455,30.993,15327.6
6514632807,0.634769,2.223,107.806,0.200831,0.119947,0.865518,-0.156035,-2.62948,-0.253576,-0.995564,2.78816,0.513049,-2.3,-0.9,0,12505,49.455,30.993,15327.6
6514733151,0.634769,2.223,107.755,0.151712,0.112972,0.861357,-0.406625,-2.53529,-0.301364,-0.784369,2.28719,0.31549,-2.3,-0.9,0,12505,49.455,30.993,15327.6
6514833558,0.634769,2.223,107.686,0.103189,0.0974368,0.857095,-0.642036,-2.46638,-0.295605,-0.80294,1.87617,1.27694,-0.8,-4.7,0,12505,49.455,30.993,15327.6
6514933853,0.634769,2.223,107.626,0.0531588,0.0626165,0.853368,-0.834889,-2.41427,-0.221285,-0.609606,1.49642,1.22734,-0.8,-4.7,0,12505,49.477,29.54,14615.5
6515034216,0.634769,2.223,107.583,-0.121411,-0.0283482,0.852079,-0.939416,-2.35638,-0.137599,-0.00121265,0.635322,0.48201,-0.8,-4.7,0,12505,49.477,29.54,14615.5
6515134574,0.634769,2.223,107.567,-0.259225,-0.098551,0.864849,-0.818142,-2.3611,-0.138188,0.831408,-1.26703,0.197929,-0.8,-4.7,0,12505,49.477,29.54,14615.5
6515234929,0.634769,2.223,107.559,-0.356274,-0.13435,0.877653,-0.542739,-2.40648,-0.144879,1.39723,-2.29855,1.56729,-0.8,-4.7,0,12505,49.477,29.54,14615.5
6515335233,0.634769,2.223,107.564,-0.398523,-0.144775,0.883744,-0.173426,-2.48607,-0.0683317,1.63,-2.85604,2.24518,-0.8,-4.7,0,12505,49.477,29.54,14615.5
6515435572,0.634769,2.223,107.572,-0.420676,-0.128817,0.880797,0.227336,-2.58249,-0.0146174,1.66213,-3.23765,1.98302,-0.8,-4.7,0,12505,49.477,29.54,14615.5
6515535853,0.634769,2.223,107.578,-0.423036,-0.113299,0.877378,0.605484,-2.7246,0.0219924,1.25869,-3.45448,1.64004,-0.8,-4.7,0,12505,49.477,29.54,14615.5
6515636107,0.634769,2.223,107.583,-0.422854,-0.102218,0.875242,0.974238,-2.87225,0.0423684,1.25815,-3.54486,1.3285,-0.8,-4.7,0,12505,49.477,29.54,14615.5
6515736367,0.634769,2.223,107.604,-0.410995,-0.0945658,0.874349,1.33858,-3.02555,0.0530772,0.995003,-3.21823,2.04493,-0.8,-4.7,0,12505,49.477,29.54,14615.5
6515836667,0.634769,2.223,107.626,-0.374741,-0.0886482,0.872837,1.68421,-3.17342,0.07474,1.01753,-3.0036,1.52817,1,-1.7,0,12505,49.477,29.54,14615.5
6515937029,0.634769,2.223,107.638,-0.305287,-0.0874259,0.867065,1.99521,-3.28348,0.0793802,1.0114,-2.60731,1.44862,1,-1.7,0,12505,49.477,29.54,14615.5
6516037395,0.634769,2.223,107.643,-0.0743758,-0.16833,0.846815,2.25911,-3.35899,0.189881,1.11517,-1.78686,0.734562,1,-1.7,0,12505,49.762,27.333,13601.4
6516137745,0.634769,2.223,107.675,0.158821,-0.256774,0.821985,2.34295,-3.12173,0.262853,2.20899,1.3427,1.27041,1,-1.7,0,12505,49.762,27.333,13601.4
6516238092,0.634769,2.223,107.711,0.260974,-0.27866,0.814563,2.33383,-2.74003,0.181484,3.02414,3.02329,-0.407043,1,-1.7,0,12505,49.762,27.333,13601.4
6516338448,0.634769,2.223,107.731,0.263574,-0.264256,0.823577,2.28514,-2.36448,-0.0266168,2.65638,3.12999,0.0358431,1,-1.7,0,12505,49.762,27.333,13601.4
6516438824,0.634769,2.223,107.724,0.222562,-0.237178,0.833482,2.23198,-1.96769,-0.0879871,2.51067,2.93068,0.948292,1,-1.7,0,12505,49.762,27.333,13601.4
6516539222,0.634769,2.223,107.707,0.187412,-0.191315,0.843669,2.19362,-1.61984,-0.145353,2.23013,2.5147,0.609252,1,-1.7,0,12505,49.762,27.333,13601.4
6516639559,0.634769,2.223,107.678,0.159095,-0.146531,0.851223,2.13873,-1.31809,-0.145362,1.7122,2.32682,0.856883,1,-1.7,0,12505,49.762,27.333,13601.4
6516739916,0.634769,2.223,107.63,0.127497,-0.114192,0.854222,2.0611,-1.06975,-0.139458,1.28376,2.09162,0.702858,1,-1.7,0,12505,49.762,27.333,13601.4
6516840350,0.634769,2.223,107.575,0.0900006,-0.100881,0.854177,1.99722,-0.852765,-0.126661,1.15099,1.65695,0.752738,2.3,-5,0,12505,49.762,27.333,13601.4
6516940708,0.634769,2.223,107.545,0.0439171,-0.0877496,0.855658,1.96536,-0.670421,-0.107861,1.05901,1.27488,0.48195,2.3,-5,0,12505,49.762,27.333,13601.4
6517041063,0.634769,2.223,107.543,-0.101668,-0.0948234,0.864109,1.93926,-0.517313,0.00921588,0.921999,0.817572,0.380786,2.3,-5,0,12505,49.771,25.033,12459.2
6517141413,0.634769,2.223,107.551,-0.251881,-0.129293,0.874196,2.05583,-0.486061,-0.0540761,1.19848,-1.1012,-0.646081,2.3,-5,0,12505,49.771,25.033,12459.2
6517241745,0.63477,2.223,107.561,-0.355454,-0.162138,0.88504,2.30672,-0.510286,-0.0943623,1.37809,-2.0646,1.14902,2.3,-5,0,12505,49.771,25.033,12459.2
6517342813,0.63477,2.223,107.563,-0.410218,-0.178016,0.891206,2.68318,-0.579557,-0.0617428,1.72346,-2.89202,1.99627,2.3,-5,0,12505,49.771,25.033,12459.2
6517447515,0.63477,2.223,107.589,-0.432694,-0.180734,0.893854,3.08838,-0.665374,-0.0148886,1.81297,-3.10552,2.05003,2.3,-5,0,12505,49.771,25.033,12459.2
6517547880,0.63477,2.223,107.602,-0.438441,-0.176092,0.893322,3.49401,-0.767038,0.0156708,1.76835,-3.27598,1.98842,2.3,-5,0,12505,49.771,25.033,12459.2
6517648242,0.63477,2.223,107.606,-0.413015,-0.162907,0.888149,3.91444,-0.870255,0.041121,1.79841,-3.3216,1.92182,2.3,-5,0,12505,49.771,25.033,12459.2
6517748594,0.63477,2.223,107.621,-0.364412,-0.142916,0.881623,4.2908,-0.97624,0.0623951,1.56126,-2.96894,1.58188,2.3,-5,0,12505,49.771,25.033,12459.2
6517848997,0.63477,2.223,107.643,-0.31913,-0.126841,0.877449,4.64383,-1.05719,0.0628984,1.42882,-2.2558,0.711171,-1.9,1.1,0,12505,49.771,25.033,12459.2
6517949372,0.63477,2.223,107.658,-0.266721,-0.099049,0.871495,4.87883,-1.10603,0.043271,1.19182,-1.80169,0.704624,-1.9,1.1,0,12505,49.771,25.033,12459.2
6518049688,0.63477,2.223,107.667,-0.0741573,0.0285945,0.860808,5.0398,-1.13897,0.101392,0.613729,-0.930237,0.562111,-1.9,1.1,0,12505,49.771,25.033,12459.2
6518150077,0.63477,2.223,107.682,0.156281,0.155128,0.873985,4.86748,-1.1393,0.143325,-1.17532,1.78208,0.339841,-1.9,1.1,0,12505,49.771,25.033,12459.2
6518250442,0.63477,2.223,107.702,0.277897,0.226171,0.892789,4.51351,-1.08467,0.0822522,-1.95192,3.31939,0.191052,-1.9,1.1,0,12505,49.771,25.033,12459.2
6518350769,0.63477,2.223,107.712,0.332519,0.269822,0.907456,4.0614,-1.041,0.0184368,-2.36171,3.61493,1.78555,-1.9,1.1,0,12505,49.771,25.033,12459.2
6518451065,0.63477,2.223,107.719,0.354865,0.279866,0.909506,3.54842,-0.98586,-0.00949369,-2.51795,3.91846,1.80765,-1.9,1.1,0,12505,49.771,25.033,12459.2
6518551377,0.63477,2.223,107.709,0.372404,0.289637,0.909913,3.03504,-0.928266,-0.0622969,-2.59154,3.9694,2.0877,-1.9,1.1,0,12461,49.84,23.222,11573.8
6518651648,0.63477,2.223,107.687,0.39351,0.294911,0.908947,2.48439,-0.85686,-0.0803714,-2.66547,4.18195,2.14222,-1.9,1.1,0,12461,49.84,23.222,11573.8
6518751987,0.634771,2.223,107.663,0.404285,0.292985,0.906768,1.90899,-0.778939,-0.109719,-2.57561,4.04862,2.96111,-1.9,1.1,0,12461,49.84,23.222,11573.8
6518852427,0.634771,2.223,107.625,0.405739,0.282752,0.900344,1.32052,-0.68614,-0.109553,-2.63142,4.30946,2.60584,-2.3,0.6,0,12461,49.84,23.222,11573.8
6518952786,0.634771,2.223,107.59,0.382002,0.277654,0.89226,0.756707,-0.583897,-0.107254,-2.25888,4.15243,2.70373,-2.3,0.6,0,12461,49.84,23.222,11573.8
6519053147,0.634771,2.223,107.562,0.318616,0.288763,0.878749,0.221314,-0.506548,-0.0969852,-2.44666,3.75285,2.1571,-2.3,0.6,0,12461,49.84,23.222,11573.8
6519153537,0.634771,2.223,107.54,0.232984,0.283469,0.868872,-0.269248,-0.479766,-0.086669,-2.44629,3.17095,2.28857,-2.3,0.6,0,12461,49.84,23.222,11573.8
6519253919,0.63477,2.223,107.526,0.1443,0.254176,0.861505,-0.683479,-0.501015,-0.0200804,-2.34135,2.39994,1.59531,-2.3,0.6,0,12461,49.84,23.222,11573.8
6519354250,0.63477,2.223,107.531,0.0667927,0.220575,0.858685,-0.983095,-0.553127,0.0304811,-1.97156,1.5733,0.684105,-2.3,0.6,0,12461,49.84,23.222,11573.8
6519454580,0.63477,2.223,107.548,0.0141026,0.189457,0.859404,-1.19901,-0.635226,0.0562606,-1.69304,0.815339,0.556499,-2.3,0.6,0,12461,49.84,23.222,11573.8
6519554874,0.63477,2.223,107.569,-0.0100158,0.170643,0.86094,-1.36197,-0.719373,0.0873948,-1.44808,0.467543,0.271,-2.3,0.6,0,12461,49.83,25.991,12951.3
6519655177,0.63477,2.223,107.59,-0.0237569,0.156934,0.861052,-1.48987,-0.805314,0.0979984,-1.3006,0.262225,0.0745446,-2.3,0.6,0,12461,49.83,25.991,12951.3
6519755528,0.63477,2.223,107.611,-0.0297629,0.143211,0.860659,-1.59723,-0.882879,0.0753394,-1.16234,0.187466,-0.161511,-2.3,0.6,0,12461,49.83,25.991,12951.3
6519855916,0.63477,2.223,107.632,-0.0294786,0.125304,0.860243,-1.6877,-0.962724,0.0686988,-1.06547,0.111473,-0.114006,2,1.2,0,12461,49.83,25.991,12951.3
6519956336,0.63477,2.223,107.646,-0.0245635,0.0847602,0.859604,-1.75562,-1.02108,0.0554562,-0.791983,0.125581,0.320705,2,1.2,0,12461,49.83,25.991,12951.3
6520056680,0.63477,2.223,107.647,0.00420945,-0.146195,0.856296,-1.7966,-1.04973,0.0759335,0.0337456,0.194449,-0.0825272,2,1.2,0,12461,49.83,25.991,12951.3
6520156994,0.63477,2.223,107.651,0.0194881,-0.325703,0.851181,-1.67604,-0.827548,0.0236175,2.8572,0.661329,-0.127569,2,1.2,0,12461,49.83,25.991,12951.3
6520257356,0.63477,2.223,107.642,0.0351165,-0.418107,0.84499,-1.46021,-0.495697,-0.0438903,3.76046,0.631703,1.42561,2,1.2,0,12461,49.83,25.991,12951.3
6520357750,0.63477,2.223,107.622,0.048267,-0.450897,0.840254,-1.18366,-0.0783402,-0.0575008,4.30446,0.763912,2.24435,2,1.2,0,12461,49.83,25.991,12951.3
6520458107,0.63477,2.223,107.596,0.0549192,-0.452921,0.836842,-0.889729,0.378908,-0.0573739,4.59869,0.831365,2.49299,2,1.2,0,12461,49.83,25.991,12951.3
6520558452,0.63477,2.223,107.575,0.055014,-0.421425,0.837148,-0.603777,0.839443,-0.0390912,4.65016,0.912937,2.33457,2,1.2,0,12461,49.772,27.027,13451.9
6520658784,0.63477,2.223,107.553,0.0455615,-0.353483,0.842287,-0.352272,1.26329,-0.00704495,4.09938,0.944947,2.00072,2,1.2,0,12461,49.772,27.027,13451.9
6520759116,0.63477,2.223,107.542,0.0316535,-0.280925,0.847501,-0.154109,1.59533,0.00689147,3.27565,0.782517,1.15938,2,1.2,0,12461,49.772,27.027,13451.9
6520859584,0.63477,2.223,107.535,0.0189899,-0.214455,0.85117,-0.0120187,1.8537,0.019562,2.48318,0.700392,0.580709,-4.1,-1.2,0,12461,49.772,27.027,13451.9
6520959926,0.63477,2.223,107.534,-0.00392991,-0.126613,0.852688,0.100931,2.06211,0.0238976,1.90854,0.579967,0.842351,-4.1,-1.2,0,12461,49.772,27.027,13451.9
6521060323,0.63477,2.223,107.536,-0.0853867,0.128237,0.851147,0.175428,2.17657,0.113463,0.58842,0.107894,0.0439983,-4.1,-1.2,0,12461,49.772,27.027,13451.9
6521160672,0.63477,2.223,107.551,-0.157911,0.308348,0.83314,0.0996066,1.98545,0.0491111,-2.51116,-0.784342,-0.536023,-4.1,-1.2,0,12461,49.772,27.027,13451.9
6521260991,0.63477,2.223,107.566,-0.201041,0.403816,0.817236,-0.0194701,1.6468,-0.00485029,-3.40461,-1.14371,1.46376,-4.1,-1.2,0,12461,49.772,27.027,13451.9
6521361284,0.63477,2.223,107.593,-0.215293,0.44422,0.810142,-0.179851,1.20522,-0.000492776,-3.92924,-1.30566,2.32323,-4.1,-1.2,0,12461,49.772,27.027,13451.9
6521461628,0.63477,2.223,107.637,-0.212356,0.448261,0.810532,-0.37566,0.735531,0.0195098,-4.38423,-1.35237,2.00331,-4.1,-1.2,0,12461,49.772,27.027,13451.9
6521561995,0.63477,2.223,107.643,-0.206055,0.433442,0.813613,-0.559649,0.273869,0.0054732,-4.31799,-1.43972,1.84669,-4.1,-1.2,0,12461,49.772,27.027,13451.9
6521662322,0.63477,2.223,107.623,-0.205859,0.416582,0.816283,-0.74378,-0.171004,0.000876129,-4.0064,-1.28405,2.04704,-4.1,-1.2,0,12461,49.694,26.417,13127.7
6521763459,0.63477,2.223,107.622,-0.205569,0.397575,0.818787,-0.902099,-0.600599,0.0150936,-3.62371,-1.28669,2.06352,-4.1,-1.2,0,12461,49.694,26.417,13127.7
6521867682,0.63477,2.223,107.638,-0.204578,0.380172,0.821014,-1.04157,-1.00543,0.0224274,-3.40019,-1.3432,1.55602,-1.2,2.3,0,12461,49.694,26.417,13127.7
6521968067,0.63477,2.223,107.626,-0.192702,0.356524,0.827823,-1.16515,-1.39494,0.026497,-3.25464,-1.3626,1.35526,-1.2,2.3,0,12461,49.694,26.417,13127.7
6522068434,0.63477,2.223,107.627,-0.0391255,0.198079,0.874147,-1.29495,-1.78869,0.0891586,-3.00352,-1.16674,1.77128,-1.2,2.3,0,12461,49.694,26.417,13127.7
6522168784,0.63477,2.223,107.638,0.196624,-0.0209835,0.871068,-1.42432,-1.85155,0.132008,-0.659141,0.977508,0.367657,-1.2,2.3,0,12461,49.694,26.417,13127.7
6522269131,0.63477,2.223,107.638,0.334383,-0.134983,0.839794,-1.58178,-1.58485,0.0573475,1.37332,3.26346,-0.0365268,-1.2,2.3,0,12461,49.694,26.417,13127.7
6522370825,0.63477,2.223,107.62,0.391016,-0.180884,0.819198,-1.80515,-1.10922,-0.0415005,2.01031,3.95699,1.86162,-1.2,2.3,0,12461,49.694,26.417,13127.7
6522475366,0.63477,2.223,107.594,0.362951,-0.170867,0.81939,-1.99416,-0.654392,-0.060591,2.14795,4.14363,1.66281,-1.2,2.3,0,12461,49.694,26.417,13127.7
6522575792,0.63477,2.223,107.566,0.300984,-0.138858,0.827877,-2.14412,-0.25222,-0.0727492,1.94557,3.41421,1.7822,-1.2,2.3,0,12461,49.694,26.417,13127.7
6522676215,0.63477,2.223,107.547,0.236077,-0.0999988,0.839532,-2.26938,0.0943418,-0.025557,1.76345,3.01424,1.13079,-1.2,2.3,0,12461,49.704,24.806,12329.6
6522776606,0.63477,2.223,107.523,0.168378,-0.0629976,0.848254,-2.36529,0.353024,-0.0229155,1.23074,2.20625,0.770815,-1.2,2.3,0,12461,49.704,24.806,12329.6
6522877020,0.63477,2.223,107.511,0.112807,-0.0325805,0.853842,-2.4344,0.553408,0.00792574,0.981228,1.61468,0.521065,4.9,3.2,0,12461,49.704,24.806,12329.6
6522977355,0.63477,2.223,107.508,0.0762392,-0.0353549,0.856037,-2.48727,0.695344,0.0147152,0.510119,1.08707,0.496067,4.9,3.2,0,12461,49.704,24.806,12329.6
6523077702,0.63477,2.223,107.512,0.0602276,-0.199658,0.853065,-2.50352,0.839292,0.0575292,1.16049,0.928352,0.6104,4.9,3.2,0,12461,49.704,24.806,12329.6
6523178043,0.63477,2.223,107.52,0.0467822,-0.330766,0.849223,-2.3705,1.12737,0.0461186,2.9451,0.706589,0.619687,4.9,3.2,0,12461,49.704,24.806,12329.6
6523278352,0.63477,2.223,107.526,0.0427899,-0.411319,0.844889,-2.14173,1.49557,0.017315,3.99072,0.555487,1.41743,4.9,3.2,0,12461,49.704,24.806,12329.6
6523379485,0.63477,2.223,107.529,0.0452955,-0.444877,0.840728,-1.85557,1.92438,0.000440534,4.52589,0.557648,2.05954,4.9,3.2,0,12461,49.704,24.806,12329.6
6523485512,0.63477,2.223,107.522,0.0490098,-0.450484,0.837839,-1.55845,2.38112,0.0119949,4.62887,0.662632,2.39251,4.9,3.2,0,12461,49.704,24.806,12329.6
6523585864,0.63477,2.223,107.512,0.0537502,-0.443544,0.836132,-1.263,2.83274,0.0233595,4.65136,0.669769,2.2374,4.9,3.2,0,12461,49.704,24.806,12329.6
6523686215,0.634769,2.223,107.507,0.059899,-0.437843,0.834497,-0.976367,3.25591,0.037943,4.30757,0.557064,2.27414,4.9,3.2,0,12461,49.669,28.152,13982.8
6523786574,0.634769,2.223,107.502,0.0658839,-0.429486,0.83342,-0.701073,3.67381,0.0353686,4.24334,0.63062,2.05804,4.9,3.2,0,12461,49.669,28.152,13982.8
6523886958,0.634769,2.223,107.499,0.0680913,-0.417543,0.832778,-0.440706,4.09193,0.0352418,4.16157,0.776221,2.05931,-1.2,-1.8,0,12461,49.669,28.152,13982.8
6523987310,0.634769,2.223,107.504,0.0591844,-0.39403,0.832938,-0.194842,4.489,0.0407763,3.97275,0.702732,1.87536,-1.2,-1.8,0,12461,49.669,28.152,13982.8
6524087667,0.63477,2.223,107.512,-0.0552112,-0.212106,0.858175,0.0742692,4.88501,0.167676,3.72998,0.554832,3.03135,-1.2,-1.8,0,12461,49.669,28.152,13982.8
6524188069,0.63477,2.223,107.533,-0.227736,0.0913571,0.845803,0.255865,4.96203,0.20764,1.11261,-1.13655,-0.464548,-1.2,-1.8,0,12461,49.669,28.152,13982.8
6524288420,0.63477,2.223,107.555,-0.328959,0.268205,0.80819,0.328791,4.66817,0.0872641,-2.24373,-2.76753,-0.312454,-1.2,-1.8,0,12461,49.669,28.152,13982.8
6524388763,0.63477,2.223,107.575,-0.36452,0.34374,0.788255,0.36605,4.2329,-0.0159126,-3.0059,-2.94676,1.71575,-1.2,-1.8,0,12461,49.669,28.152,13982.8
6524489075,0.63477,2.223,107.606,-0.368033,0.368104,0.782454,0.384133,3.68655,-0.0101582,-3.54741,-3.17525,2.61257,-1.2,-1.8,0,12461,49.669,28.152,13982.8
6524589359,0.63477,2.223,107.654,-0.357316,0.364657,0.784516,0.376714,3.03193,-0.00203212,-3.6492,-3.04166,2.49515,-1.2,-1.8,0,12461,49.669,28.152,13982.8
6524689638,0.63477,2.223,107.666,-0.345994,0.354306,0.7872,0.367331,2.51398,0.00759653,-3.51353,-2.93382,2.10992,-1.2,-1.8,0,12461,49.609,28.361,14069.6
6524790044,0.63477,2.223,107.665,-0.332563,0.339707,0.791331,0.350381,2.01492,0.00572345,-3.32929,-2.71483,2.03843,-1.2,-1.8,0,12461,49.609,28.361,14069.6
6524890463,0.63477,2.223,107.67,-0.323988,0.323842,0.794959,0.334686,1.53996,-0.0052709,-3.15569,-2.55888,1.86545,-2.1,0.5,0,12461,49.609,28.361,14069.6
6524990799,0.63477,2.223,107.679,-0.304389,0.318407,0.795726,0.328873,1.07996,-0.00104547,-2.79779,-2.50709,2.0046,-2.1,0.5,0,12461,49.609,28.361,14069.6
6525091150,0.63477,2.223,107.675,-0.158938,0.369275,0.820027,0.277519,0.612998,0.0719331,-3.20043,-2.0258,1.87306,-2.1,0.5,0,12461,49.609,28.361,14069.6
6525191501,0.63477,2.223,107.664,0.00742969,0.405241,0.857025,0.0372193,0.278396,0.0311388,-3.72629,-0.0011533,0.875875,-2.1,0.5,0,12461,49.609,28.361,14069.6
6525291853,0.63477,2.223,107.655,0.101665,0.393628,0.870917,-0.313371,0.0207913,-0.0178928,-3.68969,1.13902,1.35575,-2.1,0.5,0,12461,49.609,28.361,14069.6
6525392248,0.63477,2.223,107.648,0.128192,0.340681,0.86878,-0.713572,-0.175197,-0.0237612,-3.33646,1.7539,1.63499,-2.1,0.5,0,12461,49.609,28.361,14069.6
6525492590,0.63477,2.223,107.652,0.110596,0.271035,0.860325,-1.0695,-0.306786,-0.011477,-2.72573,1.81304,0.973272,-2.1,0.5,0,12461,49.609,28.361,14069.6
6525592939,0.63477,2.223,107.652,0.0813117,0.209832,0.854571,-1.34328,-0.389367,-0.0135154,-2.01302,1.52973,0.453914,-2.1,0.5,0,12461,49.609,28.361,14069.6
6525693294,0.63477,2.223,107.651,0.0539112,0.16304,0.852327,-1.5497,-0.441302,-0.00177052,-1.38824,1.26339,0.561959,-2.1,0.5,0,12445,49.584,26.196,12989
6525793665,0.634769,2.223,107.652,0.0251197,0.13379,0.852913,-1.7087,-0.468681,0.000333116,-0.96673,0.953788,0.0686677,-2.1,0.5,0,12445,49.584,26.196,12989
6525894063,0.634769,2.223,107.648,-0.00557151,0.112923,0.854128,-1.82402,-0.503624,-0.0167877,-0.798074,0.554353,0.196103,-4.8,4.6,0,12445,49.584,26.196,12989
6525994366,0.634769,2.223,107.645,-0.00602834,0.106888,0.855884,-1.89986,-0.539176,-0.00413118,-0.517964,0.179817,0.527889,-4.8,4.6,0,12445,49.584,26.196,12989
6526094723,0.634769,2.223,107.644,0.129027,0.155692,0.873024,-2.00563,-0.553007,0.0255818,-0.722457,0.896929,-0.0885846,-4.8,4.6,0,12445,49.584,26.196,12989
6526195076,0.634769,2.223,107.636,0.258396,0.200323,0.886349,-2.26513,-0.497642,-0.026172,-1.20879,2.31891,0.490017,-4.8,4.6,0,12445,49.584,26.196,12989
6526295414,0.634769,2.223,107.628,0.330695,0.233526,0.894653,-2.64731,-0.39483,-0.0562423,-1.63271,3.31934,1.21586,-4.8,4.6,0,12445,49.584,26.196,12989
6526395750,0.634769,2.223,107.623,0.35143,0.249293,0.894961,-3.08174,-0.28304,-0.0698228,-1.7679,3.60783,1.76278,-4.8,4.6,0,12445,49.584,26.196,12989
6526496099,0.634769,2.223,107.604,0.33787,0.25823,0.893295,-3.52416,-0.161832,-0.0663461,-1.72129,3.53669,2.04885,-4.8,4.6,0,12445,49.584,26.196,12989
6526596443,0.634769,2.223,107.59,0.311996,0.269268,0.891965,-3.95962,-0.0669613,-0.0400727,-1.92879,3.3962,1.78672,-4.8,4.6,0,12445,49.584,26.196,12989
6526696772,0.634769,2.223,107.592,0.284277,0.283839,0.892275,-4.36578,0.000317931,-0.026943,-2.03968,3.08309,1.56545,-4.8,4.6,0,12445,49.584,26.196,12989
6526797090,0.634769,2.223,107.597,0.25992,0.296846,0.892511,-4.74304,0.0423992,-0.020106,-2.03274,2.7182,1.45417,-4.8,4.6,0,12445,49.497,30.119,14908
6526897502,0.634769,2.223,107.612,0.235437,0.30241,0.891458,-5.11246,0.0553692,-0.0066636,-2.18726,2.52039,1.36846,1,0.8,0,12445,49.497,30.119,14908
6526997864,0.634769,2.223,107.628,0.172723,0.249621,0.875537,-5.46811,0.0489957,0.0228046,-2.17064,2.27027,1.43071,1,0.8,0,12445,49.497,30.119,14908
6527098335,0.634769,2.223,107.641,0.0034119,0.00540797,0.856147,-5.73188,0.0450482,0.0984367,-1.33905,1.51942,1.17291,1,0.8,0,12445,49.497,30.119,14908
6527198699,0.634769,2.223,107.657,-0.163158,-0.227071,0.879591,-5.60434,0.146114,0.171542,1.91677,-0.634511,0.236304,1,0.8,0,12445,49.497,30.119,14908
6527299116,0.634768,2.223,107.667,-0.258942,-0.338428,0.90605,-5.25302,0.292301,0.0554809,3.56165,-1.98053,0.198372,1,0.8,0,12445,49.497,30.119,14908
6527399461,0.634768,2.223,107.661,-0.30858,-0.39432,0.924083,-4.76384,0.477143,-0.0222302,4.03862,-2.34023,2.3418,1,0.8,0,12445,49.497,30.119,14908
6527499827,0.634768,2.223,107.639,-0.32524,-0.42498,0.935013,-4.20938,0.666282,-0.0744684,4.44331,-2.65694,2.54923,1,0.8,0,12445,49.497,30.119,14908
6527600229,0.634768,2.223,107.613,-0.315993,-0.432479,0.937981,-3.62994,0.884643,-0.109041,4.63912,-2.52802,3.20312,1,0.8,0,12445,49.497,30.119,14908
6527700549,0.634768,2.223,107.591,-0.303034,-0.410939,0.932922,-3.0415,1.11906,-0.0769314,4.7585,-2.46401,3.00696,1,0.8,0,12445,49.497,30.119,14908
6527800949,0.634768,2.223,107.573,-0.294987,-0.369382,0.922507,-2.48807,1.33426,-0.0774133,4.43483,-2.28228,2.73609,1,0.8,0,12401,49.553,28.064,13906.6
6527901367,0.634768,2.223,107.566,-0.268718,-0.292482,0.902799,-1.97149,1.50575,-0.0379718,3.81237,-2.15312,2.52197,1.9,0.7,0,12401,49.553,28.064,13906.6
6528001713,0.634768,2.223,107.573,-0.237304,-0.228422,0.886391,-1.54622,1.61295,0.000834666,2.9872,-2.07392,1.53789,1.9,0.7,0,12401,49.553,28.064,13906.6
6528102077,0.634768,2.223,107.585,-0.218337,-0.232876,0.878615,-1.20013,1.69395,0.0388855,2.66214,-1.80454,1.01796,1.9,0.7,0,12401,49.553,28.064,13906.6
6528202420,0.634768,2.223,107.604,-0.189789,-0.220604,0.872967,-0.863263,1.7965,0.0239789,2.57418,-1.54314,0.729579,1.9,0.7,0,12401,49.553,28.064,13906.6
6528302761,0.634768,2.223,107.621,-0.164022,-0.19952,0.869297,-0.571145,1.89142,0.0240624,2.29327,-1.23483,0.798481,1.9,0.7,0,12401,49.553,28.064,13906.6
6528403113,0.634768,2.223,107.638,-0.139833,-0.167666,0.86585,-0.318506,1.98461,0.0229035,2.04099,-1.00938,0.489703,1.9,0.7,0,12401,49.553,28.064,13906.6
6528503428,0.634768,2.223,107.64,-0.119991,-0.134773,0.863328,-0.111162,2.05882,0.0132041,1.64186,-0.831876,0.426967,1.9,0.7,0,12401,49.553,28.064,13906.6
6528603789,0.634768,2.223,107.633,-0.105579,-0.105173,0.861156,0.0450597,2.11187,0.0131154,1.23066,-0.664798,0.148614,1.9,0.7,0,12401,49.553,28.064,13906.6
6528704141,0.634768,2.223,107.628,-0.0939881,-0.0824726,0.859691,0.173764,2.15802,0.00368398,1.06115,-0.457563,0.214784,1.9,0.7,0,12401,49.553,28.064,13906.6
6528804487,0.634768,2.223,107.624,-0.0839676,-0.0644943,0.858312,0.2732,2.19138,-0.00153686,0.782287,-0.364774,0.0327486,1.9,0.7,0,12401,49.592,26.155,12970.8
6528904884,0.634768,2.223,107.608,-0.0742438,-0.0518958,0.857363,0.347162,2.20912,-0.00964423,0.538571,-0.295897,0.0433244,-2.2,4.6,0,12401,49.592,26.155,12970.8
6529005262,0.634768,2.223,107.593,-0.0597729,-0.0296978,0.857825,0.40096,2.22727,-0.0139934,0.469222,-0.128634,0.206142,-2.2,4.6,0,12401,49.592,26.155,12970.8
6529105620,0.634768,2.223,107.582,0.0701495,0.12771,0.863818,0.435528,2.24728,0.039942,0.159302,0.104125,0.574442,-2.2,4.6,0,12401,49.592,26.155,12970.8
6529205960,0.634768,2.223,107.581,0.207157,0.253383,0.884872,0.193898,2.20637,0.030819,-1.92906,1.86066,0.107045,-2.2,4.6,0,12401,49.592,26.155,12970.8
6529306303,0.634768,2.223,107.583,0.289672,0.325822,0.905907,-0.208866,2.17128,-0.0253708,-2.77446,2.81533,1.20639,-2.2,4.6,0,12401,49.592,26.155,12970.8
6529406644,0.634768,2.223,107.588,0.332864,0.358574,0.917304,-0.723563,2.11898,-0.0421203,-3.18475,3.18904,2.50858,-2.2,4.6,0,12401,49.592,26.155,12970.8
6529506976,0.634768,2.223,107.601,0.345839,0.36468,0.919868,-1.29625,2.06826,-0.0243545,-3.45136,3.52896,2.68382,-2.2,4.6,0,12401,49.592,26.155,12970.8
6529607311,0.634768,2.223,107.615,0.342505,0.359936,0.918537,-1.87118,2.02484,-0.0031888,-3.37116,3.54626,2.80127,-2.2,4.6,0,12401,49.592,26.155,12970.8
6529707662,0.634768,2.223,107.624,0.330414,0.355493,0.915284,-2.42044,1.99051,0.0115198,-3.19986,3.44942,2.5176,-2.2,4.6,0,12401,49.592,26.155,12970.8
6529808047,0.634768,2.223,107.626,0.309958,0.348527,0.911325,-2.94662,1.95178,0.0152688,-3.18422,3.33219,2.05326,-2.2,4.6,0,12401,49.563,27.613,13685.8
6529908437,0.634768,2.223,107.627,0.260935,0.311353,0.898462,-3.44124,1.90178,0.0164562,-2.8972,2.90676,2.12408,4.9,2,0,12401,49.563,27.613,13685.8
6530008831,0.634768,2.223,107.623,0.198003,0.255756,0.883701,-3.85104,1.85168,0.0328593,-2.57112,2.43313,1.36069,4.9,2,0,12401,49.563,27.613,13685.8
6530109153,0.634768,2.223,107.617,0.07627,0.0339514,0.863486,-4.22785,1.81159,0.0769613,-1.50805,1.64462,0.384336,4.9,2,0,12401,49.563,27.613,13685.8
6530209486,0.634768,2.223,107.618,-0.0706173,-0.219081,0.870309,-4.16391,1.92659,0.0722094,1.86534,-0.0950142,-0.151489,4.9,2,0,12401,49.563,27.613,13685.8
6530309845,0.634768,2.223,107.621,-0.152905,-0.345639,0.884165,-3.88292,2.09469,0.000311973,3.28327,-1.18964,0.720519,4.9,2,0,12401,49.563,27.613,13685.8
6530410192,0.634768,2.223,107.622,-0.193353,-0.404442,0.891825,-3.50115,2.32006,-0.0424228,4.16906,-1.45324,1.70507,4.9,2,0,12401,49.563,27.613,13685.8
6530510539,0.634768,2.223,107.602,-0.205517,-0.424932,0.893062,-3.05084,2.55979,-0.0507769,4.27526,-1.6007,2.51146,4.9,2,0,12401,49.563,27.613,13685.8
6530611223,0.634768,2.223,107.581,-0.200999,-0.4274,0.890837,-2.58356,2.80472,-0.0438545,4.48372,-1.63639,2.46256,4.9,2,0,12401,49.563,27.613,13685.8
6530713698,0.634768,2.223,107.562,-0.187271,-0.424316,0.887849,-2.12163,3.04789,-0.030223,4.28944,-1.59653,2.54337,4.9,2,0,12401,49.563,27.613,13685.8
6530814085,0.634767,2.223,107.546,-0.178236,-0.416117,0.88522,-1.67612,3.29696,-0.0237937,4.12524,-1.43696,2.40106,4.9,2,0,12401,49.54,28.098,13919.7
6530914496,0.634767,2.223,107.544,-0.169312,-0.408532,0.883156,-1.23715,3.54586,-0.00662743,4.07717,-1.31771,2.19285,1.5,0.8,0,12401,49.54,28.098,13919.7
6531014803,0.634767,2.223,107.549,-0.165676,-0.372968,0.877402,-0.812741,3.79425,0.00251401,4.05832,-1.12101,2.05924,1.5,0.8,0,12401,49.54,28.098,13919.7
6531115153,0.634767,2.223,107.554,-0.228893,-0.163036,0.871187,-0.375988,4.01748,0.157707,3.46213,-1.24484,2.82852,1.5,0.8,0,12401,49.54,28.098,13919.7
6531215479,0.634767,2.223,107.574,-0.288443,0.0679717,0.849045,-0.130248,3.92701,0.164735,0.201171,-2.49007,-0.500611,1.5,0.8,0,12401,49.54,28.098,13919.7
6531315815,0.634768,2.223,107.593,-0.298055,0.17307,0.827964,-0.0178329,3.66696,0.0328865,-1.58191,-2.62026,-0.103197,1.5,0.8,0,12401,49.54,28.098,13919.7
6531416189,0.634768,2.223,107.602,-0.278279,0.207683,0.820053,0.0648538,3.33372,-0.00931309,-2.12254,-2.48038,1.07554,1.5,0.8,0,12401,49.54,28.098,13919.7
6531516561,0.634768,2.223,107.627,-0.238009,0.201124,0.821021,0.11335,3.0063,-0.00563942,-2.23076,-2.18096,0.82524,1.5,0.8,0,12401,49.54,28.098,13919.7
6531616925,0.634768,2.223,107.664,-0.197917,0.169688,0.827974,0.129649,2.7229,0.00478786,-1.99989,-1.68468,0.714955,1.5,0.8,0,12401,49.54,28.098,13919.7
6531717272,0.634768,2.223,107.667,-0.165601,0.132663,0.836045,0.147042,2.50597,-0.00159395,-1.54428,-1.44968,0.0465081,1.5,0.8,0,12401,49.54,28.098,13919.7
6531817635,0.634768,2.223,107.645,-0.139312,0.0993301,0.84248,0.147531,2.32637,-0.00388109,-1.24179,-0.932206,0.575722,1.5,0.8,0,12401,49.503,28.711,14212.8
6531918013,0.634768,2.223,107.644,-0.118557,0.0677814,0.848016,0.157287,2.18566,0.00891867,-0.922758,-0.810529,0.178681,2,-1.3,0,12401,49.503,28.711,14212.8
6532023452,0.634768,2.223,107.654,-0.129172,0.0372289,0.852317,0.171259,2.07875,0.0124942,-0.579567,-0.540767,0.332742,2,-1.3,0,12401,49.503,28.711,14212.8
6532128704,0.634768,2.223,107.654,-0.226446,-0.00764472,0.853831,0.210459,1.9817,0.0226099,-0.260592,-1.03181,-0.354987,2,-1.3,0,12401,49.503,28.711,14212.8
6532229042,0.634768,2.223,107.644,-0.324022,-0.0472846,0.861227,0.40299,1.82284,-0.03486,0.333977,-2.20879,0.341632,2,-1.3,0,12401,49.503,28.711,14212.8
6532329349,0.634768,2.223,107.638,-0.383219,-0.0697707,0.866685,0.675862,1.64726,-0.0326586,0.59906,-2.92862,1.15401,2,-1.3,0,12401,49.503,28.711,14212.8
6532431048,0.634768,2.223,107.641,-0.383474,-0.0775409,0.868372,0.989796,1.45587,-0.0256172,0.716032,-3.17675,1.5165,2,-1.3,0,12401,49.503,28.711,14212.8
6532533562,0.634768,2.223,107.631,-0.340752,-0.0761776,0.867214,1.27962,1.29109,0.00201089,0.721816,-2.78714,1.41399,2,-1.3,0,12401,49.503,28.711,14212.8
6532633967,0.634768,2.223,107.614,-0.285908,-0.0691552,0.864586,1.51494,1.15862,0.0108369,0.579701,-2.28904,0.900009,2,-1.3,0,12401,49.503,28.711,14212.8
6532734323,0.634768,2.223,107.611,-0.241476,-0.0656414,0.864022,1.70596,1.07136,0.0149424,0.606288,-1.79469,0.662461,2,-1.3,0,12401,49.503,28.711,14212.8
6532834661,0.634768,2.223,107.613,-0.197559,-0.0631259,0.863716,1.85526,1.01037,0.0297921,0.578011,-1.344,0.437164,2,-1.3,0,12328,49.435,29.731,14697.5
6532935080,0.634768,2.223,107.62,-0.170305,-0.0588307,0.864238,1.98523,0.980738,0.0309149,0.642392,-1.04782,0.0857081,0.9,-5,0,12328,49.435,29.731,14697.5
6533035459,0.634768,2.223,107.627,-0.163327,-0.0386322,0.863196,2.08705,0.960987,0.0392229,0.519711,-0.666836,0.648671,0.9,-5,0,12328,49.435,29.731,14697.5
6533135797,0.634768,2.223,107.64,-0.222027,0.00992674,0.862295,2.17119,0.929481,0.0338064,0.192337,-1.00276,-0.567875,0.9,-5,0,12328,49.435,29.731,14697.5
6533236128,0.634768,2.223,107.652,-0.299653,0.0564243,0.853378,2.27749,0.789499,-0.0254384,-0.434122,-1.70742,0.375372,0.9,-5,0,12328,49.435,29.731,14697.5
6533336452,0.634768,2.223,107.656,-0.347647,0.0834298,0.844711,2.41578,0.565051,-0.0207176,-0.800434,-2.32601,0.93808,0.9,-5,0,12328,49.435,29.731,14697.5
6533436765,0.634768,2.223,107.661,-0.378028,0.0922164,0.84124,2.57102,0.312841,-0.0195477,-0.859398,-2.64098,0.988121,0.9,-5,0,12328,49.435,29.731,14697.5
6533537119,0.634768,2.223,107.667,-0.393705,0.0928399,0.840026,2.73602,0.0497836,-0.0183926,-0.903701,-2.67317,1.19672,0.9,-5,0,12328,49.435,29.731,14697.5
6533637491,0.634768,2.223,107.667,-0.398297,0.0894756,0.840798,2.91286,-0.229143,-0.0150776,-0.855008,-2.65193,1.82112,0.9,-5,0,12328,49.435,29.731,14697.5
6533737854,0.634768,2.223,107.665,-0.407154,0.0842723,0.840789,3.07078,-0.514837,-0.010669,-0.850734,-2.96002,0.795952,0.9,-5,0,12328,49.435,29.731,14697.5
6533838500,0.634768,2.223,107.657,-0.409579,0.0803871,0.841339,3.25826,-0.78098,-0.0293609,-0.708972,-2.98214,1.18754,0.9,-5,0,12328,49.435,29.731,14697.5
6533940397,0.634768,2.223,107.652,-0.410094,0.0730534,0.84308,3.45788,-1.06712,0.00607285,-0.727685,-3.00594,1.29807,4.9,3.6,0,12328,49.503,27.091,13410.9
6534040753,0.634768,2.223,107.651,-0.400107,0.0661485,0.842206,3.6473,-1.31277,-0.0207061,-0.473342,-2.80222,1.32903,4.9,3.6,0,12328,49.503,27.091,13410.9
6534141108,0.634768,2.223,107.645,-0.19693,-0.000979245,0.846848,3.85252,-1.5754,0.0190247,-0.557582,-2.64711,1.79735,4.9,3.6,0,12328,49.503,27.091,13410.9
6534241534,0.634768,2.223,107.656,0.108579,-0.112562,0.840666,3.90499,-1.57206,0.142972,0.498548,0.0558725,0.802582,4.9,3.6,0,12328,49.503,27.091,13410.9
6534341901,0.634768,2.223,107.675,0.291135,-0.166706,0.825773,3.78207,-1.25005,0.152885,1.62296,3.23952,0.341821,4.9,3.6,0,12328,49.503,27.091,13410.9
6534442225,0.634768,2.223,107.691,0.366987,-0.18542,0.821606,3.59026,-0.869698,0.0307161,1.55822,3.9371,0.937197,4.9,3.6,0,12328,49.503,27.091,13410.9
6534542583,0.634769,2.223,107.695,0.400455,-0.190252,0.821216,3.36491,-0.402143,-0.00541203,1.81804,4.30523,2.12897,4.9,3.6,0,12328,49.503,27.091,13410.9
6534642924,0.634769,2.223,107.692,0.420311,-0.180488,0.825473,3.13067,0.0730184,-0.0595976,2.06129,4.78868,1.08633,4.9,3.6,0,12328,49.503,27.091,13410.9
6534743513,0.634769,2.223,107.669,0.429678,-0.166928,0.830867,2.87724,0.596244,-0.0848038,1.85359,4.55913,3.22857,4.9,3.6,0,12328,49.503,27.091,13410.9
6534849779,0.634769,2.223,107.633,0.437627,-0.158912,0.834426,2.49962,1.19612,-0.0931418,1.48229,4.80222,2.57755,4.9,3.6,0,12328,49.503,27.091,13410.9
6534950195,0.634769,2.223,107.616,0.436221,-0.162527,0.835127,2.1955,1.68411,-0.106659,1.52795,4.76703,2.30606,0.6,-1.6,0,12328,49.572,25.869,12823.8
6535050550,0.634769,2.223,107.592,0.414206,-0.158174,0.839221,1.9038,2.1869,-0.113336,1.71138,4.60108,2.5521,0.6,-1.6,0,12328,49.572,25.869,12823.8
6535150905,0.634769,2.223,107.565,0.279388,-0.0228093,0.865153,1.60346,2.66111,0.019198,1.09926,4.23444,2.91359,0.6,-1.6,0,12328,49.572,25.869,12823.8
6535251255,0.634769,2.223,107.558,-0.00133125,0.159998,0.861402,1.37223,2.78609,0.0383116,-0.931504,1.90025,-0.409861,0.6,-1.6,0,12328,49.572,25.869,12823.8
6535351651,0.634769,2.223,107.564,-0.222754,0.257857,0.830033,1.25923,2.57808,-0.0215816,-2.56585,-1.01964,-0.122694,0.6,-1.6,0,12328,49.572,25.869,12823.8
6535451997,0.634769,2.223,107.556,-0.364933,0.30125,0.801289,1.23681,2.21257,-0.100474,-2.95539,-2.39006,1.51893,0.6,-1.6,0,12328,49.572,25.869,12823.8
6535552375,0.634769,2.223,107.566,-0.43187,0.296458,0.791324,1.27316,1.72102,-0.0900671,-2.99856,-3.04432,2.9254,0.6,-1.6,0,12328,49.572,25.869,12823.8
6535652814,0.634769,2.223,107.6,-0.435216,0.267786,0.798344,1.35803,1.18502,-0.0270568,-2.96229,-3.51653,3.00386,0.6,-1.6,0,12328,49.572,25.869,12823.8
6535753183,0.634769,2.223,107.588,-0.380469,0.21443,0.817261,1.44497,0.718216,0.0266517,-2.48072,-3.1035,2.61149,0.6,-1.6,0,12328,49.572,25.869,12823.8
6535853531,0.634769,2.223,107.564,-0.316265,0.165101,0.833012,1.52496,0.368232,0.0652175,-1.86189,-2.62502,1.44018,0.6,-1.6,0,12328,49.572,25.869,12823.8
6535953932,0.634769,2.223,107.579,-0.260478,0.121265,0.844416,1.58916,0.116149,0.0815315,-1.35087,-2.00874,0.594796,-3.6,1.5,0,12328,49.678,25.375,12605.8
6536054251,0.634769,2.223,107.613,-0.197616,0.11222,0.850491,1.64719,-0.0776114,0.0898016,-0.83278,-1.51526,0.517976,-3.6,1.5,0,12328,49.678,25.375,12605.8
6536154594,0.634769,2.223,107.629,-0.0288577,0.217426,0.865737,1.66171,-0.24782,0.168234,-1.25349,-0.709248,0.482454,-3.6,1.5,0,12328,49.678,25.375,12605.8
6536254920,0.634769,2.223,107.644,0.117818,0.301536,0.882345,1.43146,-0.379083,0.0988109,-2.58155,1.20221,-0.46407,-3.6,1.5,0,12328,49.678,25.375,12605.8
6536355205,0.634769,2.223,107.661,0.199635,0.345699,0.891386,1.0825,-0.477648,-0.00553007,-2.82927,2.19267,1.07735,-3.6,1.5,0,12328,49.678,25.375,12605.8
6536455558,0.634769,2.223,107.667,0.236288,0.356526,0.891598,0.636701,-0.579552,-0.0168462,-3.18664,2.65602,1.76326,-3.6,1.5,0,12328,49.678,25.375,12605.8
6536555908,0.634769,2.223,107.66,0.24134,0.356462,0.888728,0.182622,-0.651057,-0.0426621,-3.23116,2.92501,1.5124,-3.6,1.5,0,12328,49.678,25.375,12605.8
6536656290,0.634769,2.223,107.65,0.229318,0.351777,0.884329,-0.261273,-0.719818,-0.0682582,-3.11345,2.72407,1.63935,-3.6,1.5,0,12328,49.678,25.375,12605.8
6536757510,0.634769,2.223,107.63,0.212875,0.344267,0.879918,-0.706904,-0.792857,-0.0658227,-3.03367,2.63746,1.82221,-3.6,1.5,0,12328,49.678,25.375,12605.8
6536858088,0.634769,2.223,107.606,0.187468,0.338066,0.877467,-1.13565,-0.864242,-0.0424228,-2.86093,2.47977,1.95337,-3.6,1.5,0,12328,49.678,25.375,12605.8
6536964771,0.634769,2.223,107.591,0.161286,0.338931,0.875162,-1.54,-0.940327,-0.0235292,-2.88856,2.34278,1.45099,2.3,-3.2,0,12328,49.63,24.111,11966.3
6537065152,0.634769,2.223,107.587,0.121611,0.317919,0.866767,-1.91575,-1.03287,-0.014311,-2.92435,2.00422,1.23855,2.3,-3.2,0,12328,49.63,24.111,11966.3
6537165514,0.634769,2.223,107.586,-0.021973,0.0967669,0.840835,-2.26384,-1.13965,0.0334697,-2.54535,1.61712,1.26441,2.3,-3.2,0,12328,49.63,24.111,11966.3
6537265819,0.634769,2.223,107.595,-0.196687,-0.169964,0.868149,-2.25859,-1.11631,0.0956016,0.769275,-0.288902,0.0821739,2.3,-3.2,0,12328,49.63,24.111,11966.3
6537366113,0.634769,2.223,107.612,-0.309514,-0.301049,0.907219,-1.96895,-1.00986,-0.0146786,2.91759,-1.75634,0.334678,2.3,-3.2,0,12328,49.63,24.111,11966.3
6537466479,0.634769,2.223,107.616,-0.355435,-0.348984,0.929518,-1.51955,-0.877227,-0.0388193,3.64055,-2.37953,2.32301,2.3,-3.2,0,12328,49.63,24.111,11966.3
6537566830,0.634769,2.223,107.593,-0.368449,-0.347831,0.932325,-0.997683,-0.725395,-0.0197354,3.98298,-2.53543,2.6241,2.3,-3.2,0,12328,49.63,24.111,11966.3
6537667150,0.634769,2.223,107.564,-0.363397,-0.331207,0.928083,-0.479426,-0.596753,-0.0277528,3.80892,-2.69988,2.46697,2.3,-3.2,0,12328,49.63,24.111,11966.3
6537767519,0.634769,2.223,107.546,-0.357315,-0.309535,0.922142,0.0189259,-0.4735,-0.0210413,3.57112,-2.5911,2.29185,2.3,-3.2,0,12328,49.63,24.111,11966.3
6537867875,0.634769,2.223,107.53,-0.358683,-0.290206,0.915663,0.495786,-0.38344,0.00140258,3.23331,-2.52652,2.26951,2.3,-3.2,0,12328,49.63,24.111,11966.3
6537968335,0.634769,2.223,107.526,-0.366141,-0.27032,0.909519,0.967293,-0.311207,0.0158391,3.19446,-2.77612,1.75292,-1.3,-1.3,0,12328,49.555,29.286,14512.7
6538068653,0.634769,2.223,107.554,-0.369081,-0.237371,0.902711,1.43468,-0.276408,0.0282343,2.70234,-2.70395,2.11858,-1.3,-1.3,0,12328,49.555,29.286,14512.7
6538169015,0.634769,2.223,107.573,-0.278175,-0.041601,0.879644,1.90314,-0.249247,0.128522,2.49821,-2.60587,2.38727,-1.3,-1.3,0,12328,49.555,29.286,14512.7
6538269352,0.634769,2.223,107.597,-0.128141,0.232964,0.856397,2.05752,-0.354865,0.160563,-0.561511,-1.46453,0.0548294,-1.3,-1.3,0,12328,49.555,29.286,14512.7
6538371387,0.634769,2.223,107.622,-0.0212125,0.378244,0.855088,1.85482,-0.597346,0.0761154,-3.19843,0.292641,0.221182,-1.3,-1.3,0,12328,49.555,29.286,14512.7
6538475503,0.634769,2.223,107.651,0.0161754,0.406542,0.854469,1.56355,-0.831895,0.0168463,-3.64996,0.76641,1.51834,-1.3,-1.3,0,12328,49.555,29.286,14512.7
6538575907,0.634769,2.223,107.681,0.0095876,0.366642,0.850502,1.24697,-1.06508,0.0268219,-3.65715,0.901694,1.21079,-1.3,-1.3,0,12328,49.555,29.286,14512.7
6538676781,0.634769,2.223,107.677,-0.0116752,0.306701,0.847731,0.996829,-1.26171,0.00418288,-3.05653,0.687022,0.590357,-1.3,-1.3,0,12328,49.555,29.286,14512.7
6538777137,0.634769,2.223,107.661,-0.030286,0.251256,0.847172,0.804937,-1.42419,-0.00662223,-2.34542,0.460038,0.616951,-1.3,-1.3,0,12328,49.555,29.286,14512.7
6538877479,0.634769,2.223,107.657,-0.0410172,0.206724,0.848447,0.65101,-1.56277,-0.0190004,-1.96097,0.302036,0.391466,-1.3,-1.3,0,12328,49.555,29.286,14512.7
6538977866,0.634769,2.223,107.659,-0.0455236,0.168675,0.850754,0.524514,-1.67595,-0.0229176,-1.56283,0.216946,0.182088,1.6,-0.8,0,12328,49.523,24.714,12239.1
6539078162,0.634769,2.223,107.656,-0.0407397,0.0993674,0.853628,0.414119,-1.76603,-0.0112299,-1.16346,0.25423,0.607997,1.6,-0.8,0,12328,49.523,24.714,12239.1
6539178552,0.634769,2.223,107.658,0.000725447,-0.152695,0.851411,0.333441,-1.79488,0.046304,-0.158282,0.443188,0.788813,1.6,-0.8,0,12328,49.523,24.714,12239.1
6539278907,0.634769,2.223,107.66,0.0231627,-0.33668,0.848142,0.43001,-1.55123,0.0521905,2.90785,0.808733,-0.135894,1.6,-0.8,0,12328,49.523,24.714,12239.1
6539379264,0.634769,2.223,107.652,0.0250184,-0.400376,0.849185,0.601061,-1.20245,-0.0663615,3.99064,0.97178,0.80287,1.6,-0.8,0,12328,49.523,24.714,12239.1
6539479662,0.634769,2.223,107.621,0.0218096,-0.371468,0.854108,0.809567,-0.804449,-0.0791925,4.06817,0.938038,1.75494,1.6,-0.8,0,12328,49.523,24.714,12239.1
6539580048,0.634769,2.223,107.592,0.0116655,-0.296123,0.857829,0.987335,-0.450363,-0.0663526,3.46528,0.813514,1.499,1.6,-0.8,0,12328,49.523,24.714,12239.1
6539680381,0.634769,2.223,107.566,-0.00527648,-0.22153,0.859325,1.11431,-0.184183,-0.0473915,2.61116,0.717309,1.03709,1.6,-0.8,0,12328,49.523,24.714,12239.1
6539780740,0.634769,2.223,107.546,-0.0209268,-0.169261,0.859119,1.18521,-0.00058043,-0.0373669,1.59493,0.614114,-0.049968,1.6,-0.8,0,12328,49.523,24.714,12239.1
6539881110,0.634769,2.223,107.545,-0.0343803,-0.131095,0.858872,1.2535,0.144502,-0.0190478,1.36926,0.406192,0.575657,1.6,-0.8,0,12328,49.523,24.714,12239.1
6539981519,0.634769,2.223,107.568,-0.0472859,-0.0998752,0.858894,1.31347,0.266897,0.0047737,1.13288,0.300423,0.252077,-1.5,4.5,0,12328,49.523,25.624,12689.8
6540081810,0.634769,2.223,107.586,-0.046833,-0.0712072,0.857347,1.36324,0.362737,0.0233951,0.888643,0.279065,0.201729,-1.5,4.5,0,12328,49.523,25.624,12689.8
6540182159,0.634769,2.223,107.603,0.102802,0.0541623,0.858747,1.40545,0.446988,0.0850273,0.6003,0.364837,0.382841,-1.5,4.5,0,12328,49.523,25.624,12689.8
6540282492,0.634769,2.223,107.63,0.25773,0.162783,0.879149,1.17708,0.530092,0.0857307,-1.12729,2.50472,0.0427852,-1.5,4.5,0,12328,49.523,25.624,12689.8
6540382879,0.634769,2.223,107.652,0.348942,0.223154,0.900155,0.799433,0.633954,0.0219043,-1.80234,3.53527,0.892853,-1.5,4.5,0,12328,49.523,25.624,12689.8
6540483198,0.634769,2.223,107.661,0.402319,0.253775,0.913638,0.322243,0.733556,-0.0271156,-2.23389,4.04242,1.74321,-1.5,4.5,0,12328,49.523,25.624,12689.8
6540583530,0.634769,2.223,107.661,0.425869,0.256341,0.915272,-0.206397,0.85184,-0.0625639,-2.3401,4.3263,2.31208,-1.5,4.5,0,12328,49.523,25.624,12689.8
6540683907,0.634769,2.223,107.653,0.414828,0.239245,0.907783,-0.779643,1.00234,-0.0331471,-2.30704,4.77759,2.59531,-1.5,4.5,0,12328,49.523,25.624,12689.8
6540784303,0.634769,2.223,107.636,0.386361,0.222896,0.901674,-1.31013,1.12544,-0.059879,-2.2414,4.33091,2.34591,-1.5,4.5,0,12328,49.523,25.624,12689.8
6540885526,0.634769,2.223,107.622,0.366739,0.214953,0.89946,-1.81172,1.24932,-0.0179339,-1.99282,3.96169,2.53488,-1.5,4.5,0,12328,49.523,25.624,12689.8
6540990739,0.634769,2.223,107.609,0.345492,0.213443,0.898914,-2.3681,1.37942,-0.00760826,-1.95702,3.72715,1.76465,4.7,-1.3,0,12328,49.523,25.624,12689.8
6541091084,0.634769,2.223,107.595,0.300343,0.189138,0.889968,-2.81537,1.47691,-0.00362344,-1.85289,3.56585,1.85456,4.7,-1.3,0,12328,49.523,25.624,12689.8
6541191439,0.634769,2.223,107.589,0.101702,0.0238042,0.864611,-3.15668,1.557,0.0532512,-1.15726,2.58431,0.969766,4.7,-1.3,0,12328,49.523,25.624,12689.8
6541291806,0.634769,2.223,107.587,-0.170377,-0.195194,0.879502,-3.08822,1.64398,0.0849207,1.49612,-0.383792,0.19806,4.7,-1.3,0,12328,49.523,25.624,12689.8
6541392206,0.634769,2.223,107.589,-0.31584,-0.296078,0.904951,-2.74857,1.70249,-0.00791595,2.71813,-2.27476,0.917209,4.7,-1.3,0,12328,49.523,25.624,12689.8
6541492554,0.634769,2.223,107.579,-0.384496,-0.342057,0.919434,-2.25867,1.76123,-0.0384425,3.32802,-2.93193,2.61044,4.7,-1.3,0,12328,49.523,25.624,12689.8
6541592907,0.634769,2.223,107.572,-0.399717,-0.356193,0.921616,-1.68078,1.81525,-0.032644,3.71574,-3.34492,2.91695,4.7,-1.3,0,12328,49.593,27.136,13457.6
6541693258,0.634769,2.223,107.559,-0.384561,-0.356031,0.917191,-1.10074,1.87875,-0.0140578,3.61425,-3.14228,3.13462,4.7,-1.3,0,12328,49.593,27.136,13457.6
6541793602,0.634769,2.223,107.542,-0.363931,-0.348989,0.911842,-0.539495,1.94275,0.00367505,3.54985,-3.07103,2.82248,4.7,-1.3,0,12328,49.593,27.136,13457.6
6541893935,0.634769,2.223,107.538,-0.34288,-0.34334,0.909023,-0.00853717,2.00993,0.0144465,3.35902,-2.79879,2.68435,4.7,-1.3,0,12328,49.593,27.136,13457.6
6541994353,0.634769,2.223,107.543,-0.321774,-0.335278,0.905903,0.48396,2.08709,0.0339361,3.24833,-2.51381,2.26494,0.6,0.6,0,12328,49.593,27.136,13457.6
6542094702,0.634769,2.223,107.546,-0.287963,-0.295534,0.899174,0.952195,2.17339,0.0324505,3.23346,-2.37556,1.80911,0.6,0.6,0,12328,49.593,27.136,13457.6
6542195052,0.634769,2.223,107.555,-0.175036,-0.0516485,0.873357,1.37687,2.25046,0.128515,2.53876,-1.94108,1.8177,0.6,0.6,0,12328,49.593,27.136,13457.6
6542295371,0.634769,2.223,107.583,-0.0445805,0.215001,0.860061,1.41945,2.14467,0.182364,-1.23778,-0.5396,-0.271822,0.6,0.6,0,12328,49.593,27.136,13457.6
6542395731,0.634769,2.223,107.612,0.0199605,0.314931,0.861512,1.22997,1.95474,0.078176,-3.10778,0.500344,-0.29167,0.6,0.6,0,12328,49.593,27.136,13457.6
6542496079,0.634769,2.223,107.649,0.0437444,0.328754,0.862235,0.974654,1.74794,0.0373633,-3.34906,0.843199,0.82841,0.6,0.6,0,12328,49.593,27.136,13457.6
6542596367,0.634769,2.223,107.702,0.049077,0.296074,0.859549,0.706202,1.5503,0.0313891,-3.2103,0.935035,0.464736,0.6,0.6,0,12328,49.585,26.362,13071.6
6542696721,0.634769,2.223,107.707,0.0433043,0.240084,0.856015,0.475002,1.40173,-0.00330819,-2.70254,0.963176,-0.0264781,0.6,0.6,0,12328,49.585,26.362,13071.6
6542797055,0.634769,2.223,107.697,0.0283828,0.184932,0.854072,0.281893,1.28896,-0.0158367,-2.0764,0.865921,0.255976,0.6,0.6,0,12328,49.585,26.362,13071.6
6542897313,0.634769,2.223,107.697,0.013897,0.141069,0.853654,0.123941,1.20908,-0.0255014,-1.59706,0.757011,-0.0210935,0.6,0.6,0,12328,49.585,26.362,13071.6
6542997649,0.634769,2.223,107.702,-0.00620074,0.103274,0.853665,-0.00938997,1.15598,-0.0321473,-1.14504,0.696518,-0.197361,1.1,-2.6,0,12328,49.585,26.362,13071.6
6543097992,0.634769,2.223,107.685,-0.0535367,0.0633708,0.85428,-0.0974174,1.11117,-0.0346543,-0.69811,0.453908,0.567271,1.1,-2.6,0,12328,49.585,26.362,13071.6
6543198358,0.634769,2.223,107.664,-0.190281,0.0136092,0.852448,-0.133769,1.05259,0.00879613,-0.368997,-0.429971,-0.478582,1.1,-2.6,0,12328,49.585,26.362,13071.6
6543298763,0.634769,2.223,107.648,-0.311045,-0.0228498,0.858504,-0.0196431,0.936839,-0.0562249,0.11348,-1.77695,0.246569,1.1,-2.6,0,12328,49.585,26.362,13071.6
6543399086,0.634769,2.223,107.632,-0.391927,-0.0419735,0.864244,0.208155,0.767727,-0.0814159,0.363986,-2.67546,1.20691,1.1,-2.6,0,12328,49.585,26.362,13071.6
6543499450,0.634769,2.223,107.608,-0.42693,-0.0439782,0.865881,0.513286,0.563992,-0.0601638,0.526606,-3.21795,1.84153,1.1,-2.6,0,12328,49.585,26.362,13071.6
6543599812,0.634769,2.223,107.586,-0.437606,-0.0392266,0.864957,0.83698,0.346014,-0.0492935,0.536598,-3.25182,2.05267,1.1,-2.6,0,12328,49.498,27.651,13686.7
6543700182,0.634769,2.223,107.564,-0.42925,-0.0325095,0.862363,1.16147,0.115961,-0.0340976,0.405643,-3.32386,2.00951,1.1,-2.6,0,12328,49.498,27.651,13686.7
6543800542,0.634769,2.223,107.557,-0.387935,-0.0269425,0.860142,1.46717,-0.107225,-0.00964797,0.337355,-3.18349,1.65166,1.1,-2.6,0,12328,49.498,27.651,13686.7
6543900898,0.634769,2.223,107.561,-0.340139,-0.0222363,0.858338,1.72381,-0.296693,0.0198826,0.291709,-2.89456,0.989613,1.1,-2.6,0,12328,49.498,27.651,13686.7
6544001269,0.634769,2.223,107.574,-0.296409,-0.0177894,0.857996,1.92076,-0.441555,0.0326343,0.242217,-2.14488,0.783839,-3.7,4,0,12328,49.498,27.651,13686.7
6544101629,0.634769,2.223,107.596,-0.248024,-0.00804189,0.857357,2.08508,-0.558907,0.0449105,0.184454,-1.74727,0.553278,-3.7,4,0,12328,49.498,27.651,13686.7
6544201937,0.634769,2.223,107.633,-0.0533887,0.100634,0.860357,2.22753,-0.649583,0.13305,0.0993456,-1.24618,1.02992,-3.7,4,0,12328,49.498,27.651,13686.7
6544302293,0.634769,2.223,107.669,0.194858,0.202052,0.882394,2.06244,-0.679839,0.189824,-1.39786,1.43304,0.723736,-3.7,4,0,12328,49.498,27.651,13686.7
6544402638,0.634769,2.223,107.69,0.33601,0.259515,0.899992,1.68898,-0.618193,0.136029,-2.19359,3.56974,0.138321,-3.7,4,0,12328,49.498,27.651,13686.7
6544502993,0.634769,2.223,107.707,0.389333,0.293161,0.909748,1.23544,-0.533015,-0.0109997,-2.41456,4.00135,1.29235,-3.7,4,0,12328,49.498,27.651,13686.7
6544603331,0.634769,2.223,107.715,0.412868,0.302784,0.911018,0.683041,-0.443845,-0.0503141,-2.72199,4.41981,2.25966,-3.7,4,0,12328,49.498,27.651,13686.7
6544703667,0.634769,2.223,107.692,0.407815,0.298878,0.905394,0.107113,-0.342068,-0.0751441,-2.70167,4.45579,2.34415,-3.7,4,0,12311,49.527,27.778,13757.6
6544804083,0.634769,2.223,107.651,0.391591,0.286364,0.896324,-0.430515,-0.25283,-0.130599,-2.63853,4.14645,2.28705,-3.7,4,0,12311,49.527,27.778,13757.6
6544904442,0.634769,2.223,107.615,0.370414,0.267664,0.888236,-0.980038,-0.134848,-0.115866,-2.359,4.24604,2.5897,-3.7,4,0,12311,49.527,27.778,13757.6
6545004833,0.634769,2.223,107.584,0.338939,0.256482,0.884327,-1.49213,-0.0152106,-0.122213,-2.15563,3.90728,2.35446,-3.1,2.8,0,12311,49.527,27.778,13757.6
6545105193,0.634769,2.223,107.557,0.300628,0.270777,0.88844,-1.99253,0.0949553,-0.0782298,-2.00511,3.66653,2.66312,-3.1,2.8,0,12311,49.527,27.778,13757.6
6545205541,0.634769,2.223,107.538,0.227522,0.299534,0.88326,-2.47649,0.143887,-0.00980131,-2.46226,3.21889,1.99434,-3.1,2.8,0,12311,49.527,27.778,13757.6
6545305891,0.634769,2.223,107.529,0.152463,0.296795,0.874423,-2.87776,0.112265,-0.0145339,-2.55395,2.34469,1.43357,-3.1,2.8,0,12311,49.527,27.778,13757.6
6545406237,0.634769,2.223,107.532,0.0871476,0.278747,0.868763,-3.21475,0.0405484,0.014953,-2.51019,1.71047,1.13671,-3.1,2.8,0,12311,49.527,27.778,13757.6
6545506578,0.634769,2.223,107.547,0.0369324,0.249703,0.865781,-3.47743,-0.051912,0.038012,-2.16107,1.07662,0.800869,-3.1,2.8,0,12311,49.527,27.778,13757.6
6545606927,0.634769,2.223,107.567,0.00564044,0.218997,0.864259,-3.65851,-0.145328,0.043605,-1.80637,0.540333,0.315074,-3.1,2.8,0,12311,49.527,27.778,13757.6
6545707268,0.634769,2.223,107.585,-0.0113695,0.192591,0.863167,-3.79495,-0.236005,0.0520376,-1.5107,0.266174,0.25391,-3.1,2.8,0,12311,49.508,25.986,12865.1
6545807604,0.634769,2.223,107.601,-0.0187786,0.167823,0.862245,-3.91343,-0.321424,0.0533217,-1.37883,0.175268,-0.10959,-3.1,2.8,0,12311,49.508,25.986,12865.1
6545907951,0.634769,2.223,107.612,-0.0220714,0.140456,0.861438,-3.9949,-0.393426,0.0424039,-1.01572,0.0425152,0.123156,-3.1,2.8,0,12311,49.508,25.986,12865.1
6546008412,0.634769,2.223,107.616,-0.0230961,0.119023,0.860613,-4.05173,-0.457229,0.0474694,-0.810593,-0.00540134,0.0874863,-2.5,3.5,0,12311,49.508,25.986,12865.1
6546108772,0.634769,2.223,107.619,-0.0105156,0.0961796,0.861453,-4.08899,-0.49141,0.0376335,-0.54263,0.0885189,-0.114035,-2.5,3.5,0,12311,49.508,25.986,12865.1
6546209122,0.634769,2.223,107.625,0.039647,0.0391233,0.863055,-4.12405,-0.514681,0.0423798,-0.190146,0.270758,-0.135535,-2.5,3.5,0,12311,49.508,25.986,12865.1
6546309468,0.634768,2.223,107.619,0.0824906,0.00233164,0.859623,-4.16338,-0.422192,0.0136338,0.397964,0.951938,-0.00739394,-2.5,3.5,0,12311,49.508,25.986,12865.1
6546410478,0.634768,2.223,107.608,0.102885,-0.0180923,0.855974,-4.20407,-0.295612,0.00212983,0.62945,1.23841,0.239252,-2.5,3.5,0,12311,49.508,25.986,12865.1
6546513272,0.634768,2.223,107.604,0.104858,-0.0214754,0.853733,-4.23198,-0.152297,0.00250899,0.752002,1.25322,0.178915,-2.5,3.5,0,12311,49.508,25.986,12865.1
6546613942,0.634768,2.223,107.59,0.0853823,-0.0133675,0.853396,-4.26329,-0.0121782,-0.000454915,0.732798,1.18207,0.223039,-2.5,3.5,0,12311,49.508,25.986,12865.1
6546714340,0.634768,2.223,107.578,0.0670232,0.00239964,0.854463,-4.27312,0.112724,0.00195602,0.69579,0.991935,-0.0475672,-2.5,3.5,0,12266,49.528,25.229,12495.4
6546814717,0.634768,2.223,107.565,0.0489882,0.0174832,0.855483,-4.28538,0.206287,-0.00517191,0.465293,0.781142,0.19869,-2.5,3.5,0,12266,49.528,25.229,12495.4
6546915017,0.634768,2.223,107.551,0.0357598,0.0306837,0.856427,-4.29742,0.272205,0.00219782,0.343792,0.563655,0.313981,-2.5,3.5,0,12266,49.528,25.229,12495.4
6547015422,0.634768,2.223,107.544,0.0257332,0.0437204,0.856648,-4.31066,0.323928,0.00405259,0.162439,0.506079,0.0860122,-1.5,4.5,0,12266,49.528,25.229,12495.4
6547115757,0.634768,2.223,107.542,0.0316016,0.0315002,0.859296,-4.32953,0.356263,0.0126784,-0.109134,0.380878,0.383438,-1.5,4.5,0,12266,49.528,25.229,12495.4
6547216107,0.634768,2.223,107.547,0.0842946,-0.0394678,0.85763,-4.34021,0.424168,0.0533078,0.50627,0.648531,0.137082,-1.5,4.5,0,12266,49.528,25.229,12495.4
6547316464,0.634768,2.223,107.558,0.138826,-0.0845316,0.851403,-4.33944,0.593039,0.0350233,1.20679,1.18085,0.025689,-1.5,4.5,0,12266,49.528,25.229,12495.4
6547416814,0.634768,2.223,107.564,0.163952,-0.0978237,0.846414,-4.36181,0.821686,0.0213561,1.39818,1.69197,0.447099,-1.5,4.5,0,12266,49.528,25.229,12495.4
6547517123,0.634768,2.223,107.569,0.159656,-0.0869451,0.845607,-4.38488,1.06363,0.023512,1.51952,1.77718,0.380173,-1.5,4.5,0,12266,49.528,25.229,12495.4
6547617455,0.634768,2.223,107.568,0.136343,-0.059746,0.848468,-4.40813,1.26957,0.016552,1.25805,1.47804,0.400588,-1.5,4.5,0,12266,49.528,25.229,12495.4
6547717825,0.634768,2.223,107.569,0.101024,-0.030502,0.852347,-4.43604,1.43134,0.0120099,0.922695,1.26618,0.0670907,-1.5,4.5,0,12266,49.435,27.461,13575.3
6547818159,0.634768,2.223,107.566,0.0707166,-0.00256404,0.854789,-4.44844,1.54897,0.0166113,0.618547,0.859945,0.403648,-1.5,4.5,0,12266,49.435,27.461,13575.3
6547918477,0.634767,2.223,107.571,0.0533271,0.013518,0.856413,-4.4604,1.62411,0.0280909,0.400557,0.581756,0.0642879,-1.5,4.5,0,12266,49.435,27.461,13575.3
6548018898,0.634767,2.223,107.578,0.0454595,0.0254194,0.857592,-4.46884,1.6726,0.0284061,0.169482,0.391535,-0.154704,-2.9,1,0,12266,49.435,27.461,13575.3
6548119259,0.634767,2.223,107.582,0.00981409,0.0378449,0.85856,-4.49549,1.70846,0.0399694,0.0346271,0.502314,0.502561,-2.9,1,0,12266,49.435,27.461,13575.3
6548219612,0.634767,2.223,107.59,-0.167954,0.102265,0.846269,-4.49466,1.70212,0.0941986,-0.218169,-0.388307,-0.150721,-2.9,1,0,12266,49.435,27.461,13575.3
6548320054,0.634767,2.223,107.603,-0.318765,0.158088,0.830384,-4.3788,1.50568,0.0306267,-0.883955,-2.28123,0.0944977,-2.9,1,0,12266,49.435,27.461,13575.3
6548420410,0.634767,2.223,107.606,-0.40385,0.193089,0.819015,-4.20085,1.16666,-0.0190053,-1.38807,-3.42273,1.23568,-2.9,1,0,12266,49.435,27.461,13575.3
6548521535,0.634767,2.223,107.609,-0.4355,0.21027,0.814658,-3.98388,0.746444,-0.0366596,-1.53344,-3.78779,2.2483,-2.9,1,0,12266,49.435,27.461,13575.3
6548625796,0.634767,2.223,107.619,-0.415525,0.212756,0.817192,-3.76465,0.290455,-0.0233179,-1.70437,-3.96663,2.32363,-2.9,1,0,12266,49.435,27.461,13575.3
6548726103,0.634767,2.223,107.617,-0.346588,0.189814,0.828652,-3.55862,-0.126703,0.0073076,-1.47837,-3.56156,2.02561,-2.9,1,0,12240,49.568,23.821,11807.6
6548826449,0.634767,2.223,107.603,-0.273012,0.166624,0.837707,-3.40419,-0.442467,0.0285536,-1.21594,-2.77446,1.11473,-2.9,1,0,12240,49.568,23.821,11807.6
6548926808,0.634767,2.223,107.61,-0.208455,0.143693,0.843349,-3.29869,-0.682143,0.0218803,-0.953449,-2.11345,0.417499,-2.9,1,0,12240,49.568,23.821,11807.6
6549027205,0.634767,2.223,107.628,-0.153905,0.121299,0.847458,-3.22298,-0.865884,0.0268045,-0.818469,-1.50853,0.387751,1.1,3.6,0,12240,49.568,23.821,11807.6
6549127552,0.634767,2.223,107.639,-0.10533,0.091366,0.851998,-3.1788,-0.991169,0.0333298,-0.582525,-0.863147,0.085335,1.1,3.6,0,12240,49.568,23.821,11807.6
6549227904,0.634767,2.223,107.647,0.0313821,-0.0980634,0.853821,-3.15892,-1.08888,0.0670651,-0.338282,-0.383725,0.3252,1.1,3.6,0,12240,49.568,23.821,11807.6
6549328300,0.634767,2.223,107.664,0.162073,-0.281314,0.83014,-3.09307,-0.853021,0.107365,2.52464,1.46708,0.305178,1.1,3.6,0,12240,49.568,23.821,11807.6
6549428580,0.634767,2.223,107.689,0.230166,-0.379651,0.809345,-3.00386,-0.457983,-0.00527003,3.7952,2.20069,0.457439,1.1,3.6,0,12240,49.568,23.821,11807.6
6549528893,0.634767,2.223,107.686,0.259291,-0.436879,0.795375,-2.89261,0.0509097,-0.0819646,4.31527,2.47146,2.04894,1.1,3.6,0,12240,49.568,23.821,11807.6
6549629268,0.634767,2.223,107.663,0.264061,-0.446703,0.79286,-2.76333,0.626018,-0.134046,4.5872,2.49706,2.70963,1.1,3.6,0,12240,49.568,23.821,11807.6
6549729626,0.634767,2.223,107.622,0.235875,-0.401891,0.804803,-2.58753,1.35218,-0.138199,4.60887,2.46312,3.16965,1.1,3.6,0,12240,49.57,24.284,12037.6
6549830000,0.634766,2.223,107.577,0.173756,-0.303189,0.825442,-2.45403,1.87128,-0.0557925,3.81315,1.91373,2.90236,1.1,3.6,0,12240,49.57,24.284,12037.6
6549930351,0.634766,2.223,107.539,0.125649,-0.211193,0.840045,-2.3674,2.22732,0.0118313,2.79542,1.47539,1.17879,1.1,3.6,0,12240,49.57,24.284,12037.6
6550030756,0.634766,2.223,107.519,0.0843992,-0.143887,0.848149,-2.31972,2.47003,0.0196956,1.85911,1.0099,0.661,-3.8,-3.4,0,12240,49.57,24.284,12037.6
6550131098,0.634766,2.223,107.525,0.0462728,-0.0914443,0.852493,-2.28221,2.65563,0.0515052,1.37162,0.776192,0.814384,-3.8,-3.4,0,12240,49.57,24.284,12037.6
6550231621,0.634766,2.223,107.56,-0.125085,0.0586219,0.850613,-2.24227,2.7596,0.143479,0.567359,-0.0874031,0.200997,-3.8,-3.4,0,12240,49.57,24.284,12037.6
6550333601,0.634766,2.223,107.6,-0.288083,0.186013,0.825643,-2.15807,2.56577,0.0812994,-1.23899,-2.36932,-0.252904,-3.8,-3.4,0,12240,49.57,24.284,12037.6
6550433915,0.634766,2.223,107.633,-0.382659,0.255515,0.80278,-2.05274,2.22418,0.00473708,-2.01037,-3.1309,1.18979,-3.8,-3.4,0,12240,49.57,24.284,12037.6
6550534280,0.634766,2.223,107.669,-0.415795,0.27631,0.794934,-1.92506,1.77201,-0.012326,-2.39849,-3.70208,1.93633,-3.8,-3.4,0,12240,49.57,24.284,12037.6
6550634621,0.634766,2.223,107.725,-0.416301,0.2794,0.794415,-1.79513,1.28757,-0.000705726,-2.41264,-3.66431,2.37864,-3.8,-3.4,0,12240,49.57,24.284,12037.6
6550734963,0.634766,2.223,107.729,-0.405054,0.272693,0.796995,-1.65624,0.814687,0.0054262,-2.26192,-3.67513,2.16017,-3.8,-3.4,0,12195,49.509,25.831,12788.7
6550835308,0.634766,2.223,107.709,-0.392182,0.269669,0.798135,-1.54331,0.366581,0.00674319,-2.29818,-3.39029,1.87135,-3.8,-3.4,0,12195,49.509,25.831,12788.7
6550935645,0.634766,2.223,107.714,-0.380043,0.266915,0.799138,-1.44215,-0.0756317,0.00697481,-2.31972,-3.26286,1.69099,-3.8,-3.4,0,12195,49.509,25.831,12788.7
6551036066,0.634766,2.223,107.73,-0.365398,0.260381,0.801231,-1.3542,-0.500997,-0.00365533,-2.25001,-3.07378,1.5948,-3,4.3,0,12195,49.509,25.831,12788.7
6551137781,0.634766,2.223,107.723,-0.320206,0.246898,0.80593,-1.26499,-0.905213,-0.0184034,-2.05336,-3.00657,1.4621,-3,4.3,0,12195,49.509,25.831,12788.7
6551238191,0.634766,2.223,107.7,-0.0770185,0.209865,0.848994,-1.20895,-1.31924,0.139157,-1.91715,-2.25087,2.74253,-3,4.3,0,12195,49.509,25.831,12788.7
6551340552,0.634766,2.223,107.705,0.267586,0.157496,0.882962,-1.35275,-1.41573,0.167886,-1.28814,1.09352,0.395036,-3,4.3,0,12195,49.509,25.831,12788.7
6551440902,0.634766,2.223,107.711,0.479693,0.125594,0.884436,-1.73613,-1.24203,0.11247,-1.01583,4.47732,0.800629,-3,4.3,0,12195,49.509,25.831,12788.7
6551541242,0.634766,2.223,107.706,0.539913,0.116377,0.88033,-2.17508,-0.975193,-0.11113,-0.771257,5.31738,1.10824,-3,4.3,0,12195,49.509,25.831,12788.7
6551641569,0.634766,2.223,107.685,0.523701,0.104707,0.870524,-2.68711,-0.646441,-0.187604,-0.581386,5.24879,3.09382,-3,4.3,0,12195,49.509,25.831,12788.7
6551741913,0.634766,2.223,107.65,0.474961,0.107422,0.867857,-3.18396,-0.303599,-0.168598,-0.400073,5.00112,3.23751,-3,4.3,0,12195,49.509,25.831,12788.7
6551842262,0.634766,2.223,107.624,0.410975,0.111189,0.865157,-3.64269,-0.00256404,-0.127472,-0.569802,4.7161,2.52051,-3,4.3,0,12195,49.423,26.863,13276.5
6551942611,0.634766,2.223,107.6,0.33463,0.111607,0.863258,-4.03425,0.250646,-0.0798615,-0.485353,3.90141,2.14442,-3,4.3,0,12195,49.423,26.863,13276.5
6552043028,0.634766,2.223,107.577,0.258421,0.115514,0.863596,-4.34683,0.452131,-0.0511823,-0.417714,3.22115,1.11031,-0.3,0.9,0,12195,49.423,26.863,13276.5
6552143382,0.634766,2.223,107.573,0.184108,0.108185,0.860071,-4.59316,0.591772,-0.0333299,-0.438174,2.28915,0.972059,-0.3,0.9,0,12195,49.423,26.863,13276.5
6552243738,0.634766,2.223,107.583,-0.0129733,-0.0267309,0.852659,-4.80462,0.688456,0.0291819,-0.437281,1.68475,1.00632,-0.3,0.9,0,12195,49.423,26.863,13276.5
6552344094,0.634765,2.223,107.597,-0.207351,-0.165701,0.87524,-4.67683,0.773802,0.0950732,1.63338,-0.933627,0.383434,-0.3,0.9,0,12195,49.423,26.863,13276.5
6552444449,0.634765,2.223,107.618,-0.318119,-0.230776,0.899197,-4.35369,0.834835,0.0118058,2.58872,-2.40547,0.494605,-0.3,0.9,0,12195,49.423,26.863,13276.5
6552544803,0.634765,2.223,107.629,-0.378937,-0.258329,0.913514,-3.91192,0.86611,-0.0246856,2.85267,-3.14794,1.88193,-0.3,0.9,0,12195,49.423,26.863,13276.5
6552645139,0.634765,2.223,107.635,-0.397001,-0.261543,0.920067,-3.4084,0.892281,-0.0279953,2.83522,-3.10874,2.82353,-0.3,0.9,0,12195,49.423,26.863,13276.5
6552745483,0.634765,2.223,107.626,-0.349199,-0.219073,0.908269,-2.89745,0.904055,-0.0126742,2.98175,-3.37436,1.9646,-0.3,0.9,0,12195,49.423,26.863,13276.5
6552845818,0.634765,2.223,107.612,-0.282139,-0.160673,0.891476,-2.48846,0.922408,-0.0171544,2.46109,-2.72102,1.22467,-0.3,0.9,0,12195,49.384,27.231,13447.8
6552946183,0.634765,2.223,107.603,-0.223008,-0.0989146,0.875528,-2.18891,0.933227,-0.0150515,1.74397,-1.98549,0.730943,-0.3,0.9,0,12195,49.384,27.231,13447.8
6553046605,0.634765,2.223,107.599,-0.178549,-0.0485987,0.863755,-1.97307,0.930546,-0.0112222,1.14534,-1.44362,0.456945,2.7,-4.9,0,12195,49.384,27.231,13447.8
6553146935,0.634765,2.223,107.601,-0.156794,-0.0286255,0.857574,-1.816,0.91901,0.00850004,0.772413,-1.02652,0.475963,2.7,-4.9,0,12195,49.384,27.231,13447.8
6553247309,0.634765,2.223,107.603,-0.20327,-0.0720336,0.859584,-1.67299,0.897571,0.037681,0.772282,-1.12927,0.205391,2.7,-4.9,0,12195,49.384,27.231,13447.8
6553347695,0.634765,2.223,107.61,-0.270614,-0.113937,0.868462,-1.45658,0.898393,-0.00625078,1.36852,-1.61782,0.182723,2.7,-4.9,0,12195,49.384,27.231,13447.8
6553448089,0.634765,2.223,107.621,-0.321147,-0.138393,0.876869,-1.14869,0.861442,-0.00210415,1.56111,-2.23591,0.99597,2.7,-4.9,0,12195,49.384,27.231,13447.8
6553548445,0.634765,2.223,107.626,-0.351927,-0.145672,0.880062,-0.807539,0.821933,-0.0112425,1.76934,-2.53349,1.04983,2.7,-4.9,0,12195,49.384,27.231,13447.8
6553648735,0.634765,2.223,107.628,-0.365671,-0.145565,0.880517,-0.442557,0.760663,-0.00819364,1.75468,-2.74726,1.19101,2.7,-4.9,0,12195,49.384,27.231,13447.8
6553749107,0.634765,2.223,107.632,-0.371105,-0.138976,0.878448,-0.0153507,0.68155,-0.0100251,1.65838,-2.71788,1.39132,2.7,-4.9,0,12195,49.384,27.231,13447.8
6553849458,0.634765,2.223,107.629,-0.374186,-0.133194,0.877193,0.336695,0.597385,-0.0103198,1.54736,-2.80452,1.2606,2.7,-4.9,0,12195,49.375,28.461,14052.6
6553949842,0.634765,2.223,107.628,-0.375723,-0.128051,0.876172,0.681177,0.499298,-0.0135742,1.45551,-2.80564,1.40066,2.7,-4.9,0,12195,49.375,28.461,14052.6
6554050249,0.634765,2.223,107.628,-0.37472,-0.123477,0.875165,1.01616,0.40618,-0.0156408,1.36644,-2.70603,1.27452,1.2,-0.8,0,12195,49.375,28.461,14052.6
6554150600,0.634765,2.223,107.622,-0.354904,-0.117716,0.871439,1.35019,0.301617,-0.0115229,1.3293,-2.85402,1.24844,1.2,-0.8,0,12195,49.375,28.461,14052.6
6554250963,0.634765,2.223,107.613,-0.190331,-0.0660672,0.859784,1.64608,0.22003,0.050009,1.11237,-1.95359,1.59707,1.2,-0.8,0,12195,49.375,28.461,14052.6
6554351282,0.634765,2.223,107.618,-0.0568591,-0.0154537,0.854731,1.71518,0.233264,0.0733735,0.554056,-0.217725,-0.497139,1.2,-0.8,0,12195,49.375,28.461,14052.6
6554451577,0.634765,2.223,107.623,0.0147426,0.0118432,0.85471,1.671,0.272633,0.0309448,0.0776069,0.787005,0.176583,1.2,-0.8,0,12195,49.375,28.461,14052.6
6554551916,0.634765,2.223,107.623,0.0401971,0.0190483,0.854543,1.58562,0.331823,0.0452179,-0.0659881,1.05796,-0.100476,1.2,-0.8,0,12195,49.375,28.461,14052.6
