timestamp,lat,log,alt,roll,pitch,yaw,vel_x,vel_y,vel_z,acc_x,acc_y,acc_z,act_vx,act_vy,act_yr,capacity,vol,cur,power
474448687,0.634765,2.223,92.5888,-0.041974,-0.0127561,0.939264,0.0836287,0.033039,0.0335595,0.0349744,0.055723,-0.303218,-1.2,-0.6,0,9535,46.926,26.299,12341.1
474549045,0.634765,2.223,92.5958,-0.0443694,-0.00733011,0.937494,0.0790212,0.0309631,0.0185543,0.0272592,0.0190867,-0.197429,-1.2,-0.6,0,9535,46.926,26.299,12341.1
474649425,0.634765,2.223,92.5698,-0.0748534,0.0789763,0.935007,0.0687651,0.0275021,0.0410824,-0.202883,-0.00828769,0.413347,-1.2,-0.6,0,9535,46.926,26.299,12341.1
474749773,0.634765,2.223,92.5629,-0.113718,0.159776,0.929622,0.0354674,-0.0946565,0.0195697,-1.17623,-0.517507,0.0921787,-1.2,-0.6,0,9535,46.926,26.299,12341.1
474850084,0.634765,2.223,92.552,-0.133463,0.200278,0.924855,-0.00937443,-0.305752,0.00025876,-1.88419,-0.876695,0.688141,-1.2,-0.6,0,9535,46.926,26.299,12341.1
474950511,0.634765,2.223,92.5612,-0.136929,0.200674,0.924503,-0.0785152,-0.544238,0.00767113,-2.16607,-0.861633,0.608699,-1.2,-0.6,0,9535,46.926,26.299,12341.1
475050841,0.634765,2.223,92.5391,-0.12583,0.174661,0.92697,-0.12714,-0.76918,0.0202195,-1.9068,-0.906615,0.455221,-1.2,-0.6,0,9535,46.926,26.299,12341.1
475151199,0.634765,2.223,92.5258,-0.109692,0.138111,0.930161,-0.165109,-0.950751,0.0174801,-1.43116,-0.684509,0.5394,-1.2,-0.6,0,9535,46.926,26.299,12341.1
475251561,0.634765,2.223,92.5096,-0.093399,0.105328,0.93335,-0.19474,-1.09862,0.0234324,-1.13093,-0.606392,0.468988,-1.2,-0.6,0,9535,46.926,26.299,12341.1
475351895,0.634765,2.223,92.5271,-0.0818567,0.0782294,0.93514,-0.220856,-1.21262,0.0342902,-0.919709,-0.459449,0.183704,-1.2,-0.6,0,9535,46.926,26.299,12341.1
475452335,0.634765,2.223,92.5259,-0.0718087,0.0549986,0.936752,-0.242351,-1.29538,0.035673,-0.629633,-0.275575,0.0876504,2.3,2.3,0,9535,46.926,26.502,12436.3
475552681,0.634765,2.223,92.5422,-0.0455548,0.0102903,0.940234,-0.256279,-1.35338,0.0428544,-0.424478,-0.224763,0.186748,2.3,2.3,0,9535,46.919,26.502,12434.5
475653060,0.634765,2.223,92.5619,0.0894187,-0.154453,0.932084,-0.257293,-1.34881,0.0996367,0.391137,0.21215,0.79645,2.3,2.3,0,9535,46.919,26.502,12434.5
475753437,0.634765,2.223,92.6096,0.200737,-0.265296,0.91156,-0.288167,-1.08461,0.0631515,2.16102,2.01575,0.0770833,2.3,2.3,0,9535,46.919,26.502,12434.5
475853773,0.634765,2.223,92.6265,0.264651,-0.327302,0.894647,-0.334669,-0.711453,-0.0204789,2.79828,2.49489,1.1147,2.3,2.3,0,9535,46.919,26.502,12434.5
475954134,0.634765,2.223,92.6501,0.294553,-0.354241,0.887228,-0.388563,-0.233291,-0.0311845,3.20145,2.92259,2.21158,2.3,2.3,0,9535,46.919,26.502,12434.5
476054485,0.634765,2.223,92.6726,0.29453,-0.359209,0.887155,-0.453015,0.273326,-0.03746,3.32819,3.1358,1.97849,2.3,2.3,0,9535,46.919,26.502,12434.5
476154852,0.634765,2.223,92.6504,0.278264,-0.355437,0.889905,-0.511258,0.780731,-0.0539734,3.29732,3.03495,2.14262,2.3,2.3,0,9535,46.919,26.502,12434.5
476255256,0.634765,2.223,92.6285,0.246373,-0.336232,0.897889,-0.552933,1.2827,-0.034115,3.38937,2.88778,2.16287,2.3,2.3,0,9535,46.919,26.502,12434.5
476355552,0.634765,2.223,92.6279,0.194949,-0.291581,0.910468,-0.584382,1.73147,-0.0256997,2.97741,2.52775,1.67315,2.3,2.3,0,9535,46.919,26.502,12434.5
476455995,0.634765,2.223,92.6292,0.143546,-0.243523,0.919884,-0.605764,2.094,-0.0109847,2.36794,1.90424,1.5849,2.3,-3.7,0,9535,46.919,26.502,12434.5
476556351,0.634765,2.223,92.6324,0.0857303,-0.194499,0.930607,-0.614752,2.37141,-0.00400415,1.92999,1.51941,0.475605,2.3,-3.7,0,9535,46.919,26.832,12589.3
476656715,0.634765,2.223,92.6292,-0.126389,-0.123583,0.950988,-0.599321,2.58151,0.029102,1.48155,0.683638,0.575907,2.3,-3.7,0,9535,46.919,26.832,12589.3
476757065,0.634765,2.223,92.6061,-0.317533,-0.0579474,0.947696,-0.414328,2.55016,0.0380402,0.618202,-2.06965,0.113338,2.3,-3.7,0,9535,46.919,26.832,12589.3
476857447,0.634765,2.223,92.5915,-0.424214,-0.028687,0.939137,-0.141123,2.37652,-0.0150964,0.085414,-3.30146,1.01221,2.3,-3.7,0,9535,46.919,26.832,12589.3
476957754,0.634765,2.223,92.5981,-0.471879,-0.0172095,0.933616,0.210206,2.11376,-0.0290459,-0.146725,-3.87065,2.36835,2.3,-3.7,0,9535,46.919,26.832,12589.3
477058157,0.634765,2.223,92.6172,-0.478317,-0.0180429,0.931604,0.594951,1.81514,-0.0112542,-0.135166,-4.24672,2.20225,2.3,-3.7,0,9535,46.919,26.832,12589.3
477158487,0.634765,2.223,92.6278,-0.467563,-0.0263462,0.932617,0.967631,1.52202,-0.00172742,-0.123452,-4.24709,1.74466,2.3,-3.7,0,9535,46.919,26.832,12589.3
477258859,0.634765,2.223,92.6101,-0.454977,-0.0361026,0.936057,1.34083,1.24855,-0.0131998,0.0562226,-4.10021,1.72694,2.3,-3.7,0,9535,46.919,26.832,12589.3
477360688,0.634765,2.223,92.5885,-0.443684,-0.0473387,0.939408,1.70854,0.985668,0.00220882,0.107105,-3.82689,2.0813,2.3,-3.7,0,9535,46.919,26.832,12589.3
477466235,0.634765,2.223,92.5909,-0.425226,-0.0600891,0.943881,2.1311,0.691572,0.00391526,0.215159,-3.58416,1.69113,2,-4.5,0,9535,46.919,26.832,12589.3
477566592,0.634765,2.223,92.5929,-0.409679,-0.0614693,0.94375,2.47491,0.475283,0.0107938,0.453158,-3.41867,1.46658,2,-4.5,0,9535,46.877,27.816,13039.3
477666925,0.634765,2.223,92.5888,-0.403044,-0.0367463,0.93803,2.797,0.249271,0.0262876,0.112272,-3.23099,1.66553,2,-4.5,0,9535,46.877,27.816,13039.3
477767226,0.634765,2.223,92.6065,-0.398074,-0.0323334,0.93821,3.08215,0.020236,0.0230314,0.00842655,-3.24721,1.07809,2,-4.5,0,9535,46.877,27.816,13039.3
477867576,0.634765,2.223,92.6277,-0.390917,-0.035366,0.938824,3.3497,-0.208762,0.0129449,-0.0935049,-3.17585,0.768089,2,-4.5,0,9535,46.877,27.816,13039.3
477967928,0.634765,2.223,92.6452,-0.365963,-0.0440069,0.94018,3.61925,-0.435996,0.0182258,-0.025644,-3.0643,0.851085,2,-4.5,0,9535,46.877,27.816,13039.3
478068256,0.634766,2.223,92.6654,-0.322613,-0.0504843,0.939394,3.84272,-0.61699,0.00844876,0.0475845,-2.45421,0.705732,2,-4.5,0,9535,46.877,27.816,13039.3
478168580,0.634766,2.223,92.703,-0.276233,-0.0567344,0.940264,4.02067,-0.761282,0.0194766,0.121318,-2.00442,0.512533,2,-4.5,0,9535,46.877,27.816,13039.3
478268959,0.634766,2.223,92.7274,-0.24546,-0.0623666,0.940935,4.17125,-0.868974,-0.000216264,0.138228,-1.58032,0.352604,2,-4.5,0,9535,46.877,27.816,13039.3
478369368,0.634766,2.223,92.7418,-0.210736,-0.0679533,0.942686,4.29543,-0.950423,-0.00435741,0.268631,-1.30295,0.232118,2,-4.5,0,9535,46.877,27.816,13039.3
478469780,0.634766,2.223,92.7836,-0.190135,-0.0709585,0.942947,4.39247,-1.00466,-0.0153709,0.283805,-0.98357,0.293703,-0.2,3,0,9535,46.877,27.816,13039.3
478570112,0.634766,2.223,92.8087,-0.138509,-0.0656578,0.94034,4.48615,-1.04271,-0.0261146,0.343564,-0.896998,0.473488,-0.2,3,0,9535,46.759,29.916,13988.4
478670462,0.634766,2.223,92.8265,0.0944049,0.00380996,0.93589,4.5271,-1.04874,0.0250274,0.263568,0.0599841,0.319349,-0.2,3,0,9535,46.759,29.916,13988.4
478770823,0.634766,2.223,92.8801,0.323884,0.0753791,0.951518,4.22766,-0.94954,0.0378274,-0.840138,3.25995,0.260026,-0.2,3,0,9535,46.759,29.916,13988.4
478871161,0.634766,2.223,92.8729,0.42612,0.111995,0.964025,3.7708,-0.793416,-0.014345,-1.24378,4.26874,1.90767,-0.2,3,0,9535,46.759,29.916,13988.4
478971472,0.634766,2.223,92.8254,0.475001,0.129543,0.972285,3.21831,-0.612121,-0.0476877,-1.49183,4.91779,2.30546,-0.2,3,0,9535,46.759,29.916,13988.4
479071822,0.634766,2.223,92.8131,0.495142,0.138315,0.977146,2.64195,-0.424157,-0.100909,-1.4861,4.90546,2.6099,-0.2,3,0,9535,46.759,29.916,13988.4
479172217,0.634766,2.223,92.8266,0.50171,0.146012,0.982433,2.06165,-0.223127,-0.175718,-1.5198,5.32457,2.04216,-0.2,3,0,9535,46.759,29.916,13988.4
479272558,0.634766,2.223,92.8703,0.513657,0.156089,0.988058,1.4555,-0.0374442,-0.235717,-1.63309,5.03636,3.05612,-0.2,3,0,9535,46.759,29.916,13988.4
479372895,0.634766,2.223,92.9341,0.523171,0.151887,0.987758,0.820627,0.152895,-0.270276,-1.84049,5.38973,2.90694,-0.2,3,0,9535,46.759,29.916,13988.4
479473286,0.634766,2.223,92.8865,0.505977,0.143835,0.985183,0.157895,0.36902,-0.299092,-1.62918,5.30932,3.6453,-4.3,-0.9,0,9535,46.759,29.916,13988.4
479573671,0.634766,2.223,92.7864,0.457673,0.135655,0.981477,-0.487628,0.583312,-0.274379,-1.61867,5.32438,3.07696,-4.3,-0.9,0,9535,46.702,30.698,14336.6
479674051,0.634766,2.223,92.7098,0.276692,0.229095,0.978723,-1.10655,0.763938,-0.199507,-1.62332,4.66023,3.6998,-4.3,-0.9,0,9535,46.702,30.698,14336.6
479774446,0.634766,2.223,92.6744,-0.0228788,0.322153,0.933008,-1.56882,0.667333,-0.072319,-3.02187,2.23733,1.94614,-4.3,-0.9,0,9535,46.702,30.698,14336.6
479874791,0.634766,2.223,92.6878,-0.238639,0.353462,0.896333,-1.76435,0.310436,-0.0470909,-3.61225,-0.904117,1.37365,-4.3,-0.9,0,9535,46.702,30.698,14336.6
479975152,0.634766,2.223,92.6874,-0.343815,0.355426,0.883666,-1.82544,-0.149371,-0.0856369,-3.69269,-2.30918,1.86399,-4.3,-0.9,0,9535,46.702,30.698,14336.6
480075482,0.634766,2.223,92.6844,-0.37444,0.34375,0.885956,-1.80684,-0.680545,-0.0741984,-3.39878,-2.88704,3.07245,-4.3,-0.9,0,9535,46.702,30.698,14336.6
480175818,0.634766,2.223,92.7061,-0.363259,0.32824,0.89528,-1.75918,-1.20283,-0.0266807,-3.27936,-2.96086,2.8007,-4.3,-0.9,0,9535,46.702,30.698,14336.6
480276260,0.634766,2.223,92.7296,-0.334996,0.318168,0.902252,-1.71443,-1.67931,-0.000387259,-3.21327,-2.84741,1.81337,-4.3,-0.9,0,9535,46.702,30.698,14336.6
480376584,0.634766,2.223,92.7385,-0.307762,0.312534,0.906094,-1.67822,-2.1177,0.0139158,-2.87371,-2.51798,1.88535,-4.3,-0.9,0,9535,46.702,30.698,14336.6
480476968,0.634766,2.223,92.7631,-0.266385,0.287113,0.914189,-1.65544,-2.52733,0.0160689,-2.87605,-2.25246,1.41266,2.4,2.3,0,9535,46.702,30.698,14336.6
480577324,0.634766,2.223,92.7772,-0.213108,0.231763,0.926698,-1.65066,-2.87371,0.0226482,-2.56796,-1.82997,0.626967,2.4,2.3,0,9535,46.916,26.004,12200
480677663,0.634766,2.223,92.7899,-0.0917821,0.00112342,0.943203,-1.6417,-3.15051,0.0775643,-1.78675,-1.27432,0.606551,2.4,2.3,0,9535,46.916,26.004,12200
480779211,0.634766,2.223,92.8,0.0611707,-0.266966,0.929625,-1.57564,-3.09104,0.0896683,1.33335,0.274243,-0.0511893,2.4,2.3,0,9535,46.916,26.004,12200
480884384,0.634766,2.223,92.7854,0.153115,-0.403693,0.90492,-1.46946,-2.67219,-0.050068,3.59879,1.68877,0.820841,2.4,2.3,0,9535,46.916,26.004,12200
480984741,0.634766,2.223,92.7558,0.202702,-0.462114,0.886851,-1.35144,-2.14736,-0.094324,4.49901,2.24183,2.33885,2.4,2.3,0,9535,46.916,26.004,12200
481085071,0.634766,2.223,92.7422,0.227898,-0.471035,0.881301,-1.23654,-1.57131,-0.105778,4.5629,2.41299,2.76742,2.4,2.3,0,9535,46.916,26.004,12200
481185437,0.634766,2.223,92.7134,0.22879,-0.461558,0.880498,-1.14126,-0.991634,-0.114109,4.40946,2.50978,2.89602,2.4,2.3,0,9535,46.916,26.004,12200
481285789,0.634766,2.223,92.6745,0.22646,-0.447711,0.883392,-1.0532,-0.410788,-0.107616,4.30807,2.54064,2.98246,2.4,2.3,0,9535,46.916,26.004,12200
481386125,0.634766,2.223,92.6273,0.215376,-0.43554,0.887573,-0.969719,0.156154,-0.11248,4.01646,2.35267,3.20917,2.4,2.3,0,9535,46.916,26.004,12200
481486465,0.634766,2.223,92.5965,0.199862,-0.423006,0.891012,-0.88713,0.715817,-0.0842039,3.94983,2.29868,2.99737,-4.4,2.9,0,9535,46.916,26.004,12200
481586852,0.634766,2.223,92.586,0.179426,-0.387421,0.895951,-0.796735,1.2436,-0.0610564,3.96804,2.12799,2.31779,-4.4,2.9,0,9504,46.87,25.382,11896.5
481687190,0.634766,2.223,92.5534,0.134018,-0.135674,0.909371,-0.722923,1.70283,0.0063218,3.10398,1.8942,1.98419,-4.4,2.9,0,9504,46.87,25.382,11896.5
481787526,0.634766,2.223,92.5219,0.0876545,0.165131,0.928067,-0.827647,1.83334,0.0679492,-0.336118,1.54486,0.124444,-4.4,2.9,0,9504,46.87,25.382,11896.5
481887883,0.634766,2.223,92.4968,0.0555342,0.357721,0.940058,-1.07524,1.66596,0.0322025,-2.97563,0.928331,1.07233,-4.4,2.9,0,9504,46.87,25.382,11896.5
481988314,0.634766,2.223,92.4737,0.0446578,0.44645,0.948991,-1.38553,1.36963,0.00204484,-4.17051,0.740283,1.74032,-4.4,2.9,0,9504,46.87,25.382,11896.5
482088676,0.634766,2.223,92.4688,0.0451176,0.472657,0.95511,-1.74675,1.00621,0.017834,-4.50643,0.733701,2.69037,-4.4,2.9,0,9504,46.87,25.382,11896.5
482189026,0.634766,2.223,92.4733,0.0524663,0.467256,0.959037,-2.11612,0.625154,0.0380331,-4.59533,0.797481,2.56138,-4.4,2.9,0,9504,46.87,25.382,11896.5
482289362,0.634766,2.223,92.4955,0.0612845,0.453626,0.96034,-2.46203,0.265215,0.0436684,-4.40924,0.686678,2.20637,-4.4,2.9,0,9504,46.87,25.382,11896.5
482389697,0.634766,2.223,92.5139,0.0675544,0.438518,0.960571,-2.81353,-0.0813859,0.0486667,-4.15171,0.780868,2.37138,-4.4,2.9,0,9504,46.87,25.382,11896.5
482490133,0.634766,2.223,92.5145,0.0715797,0.419595,0.960614,-3.15555,-0.411131,0.0522714,-4.01508,0.873869,1.94538,-1.4,1.6,0,9504,46.87,25.382,11896.5
482590419,0.634765,2.223,92.5156,0.0594832,0.368685,0.951708,-3.48786,-0.71829,0.0493625,-3.93319,0.946919,1.36345,-1.4,1.6,0,9504,46.87,25.382,11896.5
482690765,0.634765,2.223,92.5061,-0.0364026,0.106569,0.934846,-3.7531,-0.976311,0.0998901,-2.70306,0.532934,1.52193,-1.4,1.6,0,9504,46.619,33.805,15759.6
482791154,0.634765,2.223,92.5228,-0.122641,-0.137399,0.947327,-3.70925,-1.02323,0.166736,0.665131,-0.759472,-0.946324,-1.4,1.6,0,9504,46.619,33.805,15759.6
482892635,0.634765,2.223,92.5333,-0.161773,-0.241764,0.958464,-3.50725,-0.954008,0.0664482,2.13055,-1.20824,0.270215,-1.4,1.6,0,9504,46.619,33.805,15759.6
482992989,0.634765,2.223,92.5282,-0.167517,-0.267115,0.960239,-3.21481,-0.834105,0.052111,2.77427,-1.43698,1.12853,-1.4,1.6,0,9504,46.619,33.805,15759.6
483093382,0.634765,2.223,92.5258,-0.143577,-0.233943,0.954415,-2.93535,-0.711407,0.0545242,2.64864,-1.29065,0.918645,-1.4,1.6,0,9504,46.619,33.805,15759.6
483193746,0.634765,2.223,92.5423,-0.110856,-0.184412,0.947539,-2.70122,-0.600467,0.0589313,2.31703,-1.03553,0.493005,-1.4,1.6,0,9504,46.619,33.805,15759.6
483294060,0.634765,2.223,92.5678,-0.0809279,-0.138101,0.943308,-2.53368,-0.506676,0.0516376,1.77458,-0.637405,0.543243,-1.4,1.6,0,9504,46.619,33.805,15759.6
483394416,0.634765,2.223,92.576,-0.0594312,-0.0994913,0.9407,-2.40999,-0.433371,0.0644502,1.36693,-0.359944,0.330289,-1.4,1.6,0,9504,46.619,33.805,15759.6
483494816,0.634765,2.223,92.5751,-0.044723,-0.0658937,0.93917,-2.32251,-0.379258,0.0422176,0.910965,-0.293916,0.0321384,0.8,4.2,0,9504,46.619,33.805,15759.6
483595165,0.634765,2.223,92.5463,-0.0219659,-0.053781,0.939456,-2.2673,-0.338616,0.0341253,0.644049,-0.0700867,0.0720612,0.8,4.2,0,9504,46.619,33.805,15759.6
483697348,0.634765,2.223,92.5012,0.100203,-0.141025,0.929685,-2.22432,-0.271778,0.0601024,0.881653,0.299901,0.493953,0.8,4.2,0,9504,46.666,31.078,14502.9
483802609,0.634765,2.223,92.4807,0.216708,-0.221766,0.910769,-2.23073,-0.0323881,0.025966,1.95571,1.66066,0.30956,0.8,4.2,0,9504,46.666,31.078,14502.9
483902957,0.634765,2.223,92.4495,0.293137,-0.269296,0.89511,-2.29634,0.340045,-0.00937716,2.42396,2.55385,1.73288,0.8,4.2,0,9504,46.666,31.078,14502.9
484003307,0.634765,2.223,92.3895,0.327683,-0.29087,0.886492,-2.38753,0.79559,-0.00126289,2.66278,3.10866,2.2387,0.8,4.2,0,9504,46.666,31.078,14502.9
484103632,0.634765,2.223,92.3822,0.319591,-0.285282,0.888894,-2.47968,1.28294,0.016619,2.86347,3.16642,2.52843,0.8,4.2,0,9504,46.666,31.078,14502.9
484203989,0.634765,2.223,92.3753,0.26946,-0.248958,0.900526,-2.57323,1.74746,0.0551356,2.71141,3.08192,2.15841,0.8,4.2,0,9504,46.666,31.078,14502.9
484304365,0.634765,2.223,92.3883,0.211754,-0.207673,0.911529,-2.64122,2.12604,0.0926336,2.37416,2.50648,1.35446,0.8,4.2,0,9504,46.666,31.078,14502.9
484404712,0.634765,2.223,92.4319,0.160179,-0.163975,0.921112,-2.68235,2.41035,0.122395,1.8706,1.86103,0.777595,0.8,4.2,0,9504,46.666,31.078,14502.9
484505096,0.634765,2.223,92.4649,0.121561,-0.124163,0.927538,-2.7089,2.62555,0.120726,1.41457,1.37112,0.402455,-1.8,-4.8,0,9504,46.666,31.078,14502.9
484605382,0.634764,2.223,92.4932,0.0746552,-0.091115,0.933952,-2.73223,2.78079,0.136787,1.05119,1.01991,0.163682,-1.8,-4.8,0,9504,46.666,31.078,14502.9
484705766,0.634764,2.223,92.5423,-0.13702,-0.00623689,0.939571,-2.73251,2.8835,0.164794,0.692491,0.302607,0.250811,-1.8,-4.8,0,9504,46.592,31.464,14659.7
484806168,0.634764,2.223,92.5606,-0.323274,0.0696862,0.926134,-2.59728,2.74039,0.161786,-0.48663,-2.41497,-0.416209,-1.8,-4.8,0,9504,46.592,31.464,14659.7
484906521,0.634764,2.223,92.5878,-0.426635,0.108301,0.913346,-2.37421,2.46096,0.0804233,-0.930404,-3.50576,0.780822,-1.8,-4.8,0,9504,46.592,31.464,14659.7
485006828,0.634764,2.223,92.6524,-0.469921,0.129443,0.904032,-2.03501,1.99813,0.0329839,-1.37765,-4.30921,1.76366,-1.8,-4.8,0,9504,46.592,31.464,14659.7
485107103,0.634764,2.223,92.6627,-0.471877,0.137155,0.901444,-1.74637,1.57415,0.00214127,-1.4571,-4.227,2.08208,-1.8,-4.8,0,9504,46.592,31.464,14659.7
485207480,0.634764,2.223,92.6417,-0.457551,0.134688,0.903977,-1.45473,1.14189,-0.0130294,-1.45091,-4.2883,2.11056,-1.8,-4.8,0,9504,46.592,31.464,14659.7
485307848,0.634764,2.223,92.6537,-0.446178,0.127188,0.90857,-1.17347,0.725455,-0.0266378,-1.43744,-4.23502,1.7745,-1.8,-4.8,0,9504,46.592,31.464,14659.7
485408225,0.634764,2.223,92.6617,-0.435284,0.116141,0.912247,-0.887906,0.323937,-0.0319226,-1.17582,-3.87518,2.02076,-1.8,-4.8,0,9504,46.592,31.464,14659.7
485508625,0.634764,2.223,92.6359,-0.424391,0.107152,0.914447,-0.620056,-0.058612,-0.0372112,-1.14045,-3.68982,1.94368,-2,-3.7,0,9504,46.592,31.464,14659.7
485610208,0.634764,2.223,92.6324,-0.409244,0.113584,0.9125,-0.345593,-0.432403,-0.045614,-0.937305,-3.71706,1.74862,-2,-3.7,0,9504,46.592,31.464,14659.7
485711063,0.634764,2.223,92.63,-0.392985,0.133753,0.909139,-0.1072,-0.807696,-0.0374698,-1.23881,-3.2993,1.84229,-2,-3.7,0,9491,46.747,28.884,13502.4
485812550,0.634764,2.223,92.6345,-0.382413,0.134845,0.91048,0.111107,-1.17651,-0.0388502,-1.24814,-3.26004,1.62835,-2,-3.7,0,9491,46.747,28.884,13502.4
485913071,0.634764,2.223,92.624,-0.374617,0.129002,0.912306,0.311668,-1.53497,-0.0276115,-1.21276,-2.98132,1.81813,-2,-3.7,0,9491,46.747,28.884,13502.4
486013414,0.634764,2.223,92.6505,-0.369533,0.118457,0.915231,0.513107,-1.87857,-0.00877752,-1.1502,-3.05827,1.46111,-2,-3.7,0,9491,46.747,28.884,13502.4
486113766,0.634764,2.223,92.6503,-0.370633,0.108188,0.917127,0.70172,-2.18825,-0.0198349,-1.02396,-3.00329,0.897853,-2,-3.7,0,9491,46.747,28.884,13502.4
486214066,0.634764,2.223,92.6614,-0.357461,0.0980138,0.918602,0.89039,-2.50332,-0.0222237,-1.03702,-3.05199,1.02831,-2,-3.7,0,9491,46.747,28.884,13502.4
486314427,0.634764,2.223,92.6569,-0.318357,0.084109,0.923116,1.07365,-2.78546,-0.0119685,-0.829334,-2.68465,0.996542,-2,-3.7,0,9491,46.747,28.884,13502.4
486414775,0.634764,2.223,92.6644,-0.278217,0.0707428,0.927281,1.22482,-3.01601,-0.00154418,-0.602025,-2.25726,0.734671,-2,-3.7,0,9491,46.747,28.884,13502.4
486515169,0.634764,2.223,92.6611,-0.239167,0.0570643,0.930558,1.34052,-3.2088,0.00772105,-0.571297,-1.87147,0.253007,-1.9,-3.1,0,9491,46.747,28.884,13502.4
486615500,0.634764,2.223,92.6566,-0.193379,0.0411763,0.933466,1.42912,-3.35557,-0.00414937,-0.443043,-1.53635,-0.170361,-1.9,-3.1,0,9491,46.747,28.884,13502.4
486715802,0.634764,2.223,92.6574,-0.118571,0.0236593,0.935819,1.485,-3.45212,0.0256936,-0.168003,-0.809803,-0.0817188,-1.9,-3.1,0,9491,46.747,28.884,13502.4
486816152,0.634764,2.223,92.6533,-0.0785421,0.0131077,0.936622,1.47599,-3.48002,0.0209825,-0.0877271,-0.0828453,-0.268001,-1.9,-3.1,0,9491,46.766,28.454,13306.8
486916517,0.634764,2.223,92.6489,-0.059295,0.0043707,0.937827,1.44979,-3.48459,-0.000357513,-0.0399226,0.182687,-0.213487,-1.9,-3.1,0,9491,46.766,28.454,13306.8
487016860,0.634764,2.223,92.6629,-0.0535805,-0.00216372,0.938224,1.41521,-3.47011,0.00449342,0.0833355,0.328899,-0.0893379,-1.9,-3.1,0,9491,46.766,28.454,13306.8
487117195,0.634765,2.223,92.6811,-0.0584971,-0.00406623,0.938518,1.37906,-3.43749,-0.00746055,0.185439,0.392338,-0.11708,-1.9,-3.1,0,9491,46.766,28.454,13306.8
487217521,0.634765,2.223,92.6896,-0.0654953,-0.00453162,0.939174,1.35615,-3.41279,-0.011144,0.190024,0.221573,-0.40595,-1.9,-3.1,0,9491,46.766,28.454,13306.8
487317886,0.634765,2.223,92.6832,-0.0744129,-0.00307686,0.938559,1.33816,-3.38559,-0.0256927,0.211896,0.127667,-0.438176,-1.9,-3.1,0,9491,46.766,28.454,13306.8
487418231,0.634765,2.223,92.6767,-0.0815884,0.000183884,0.938345,1.32769,-3.36149,-0.0440236,0.234389,0.0878333,0.0617562,-1.9,-3.1,0,9491,46.766,28.454,13306.8
487518639,0.634765,2.223,92.6734,-0.0893939,0.00442397,0.938605,1.3166,-3.34809,-0.0325267,0.0938072,0.0152083,-0.146388,1.5,-0.9,0,9491,46.766,28.454,13306.8
487619002,0.634765,2.223,92.6537,-0.0864871,-0.00713027,0.940011,1.30706,-3.33337,-0.0419598,0.128039,-0.0600978,-0.403081,1.5,-0.9,0,9491,46.766,28.454,13306.8
487719366,0.634765,2.223,92.663,0.0142915,-0.155472,0.934432,1.30795,-3.31667,0.00965432,0.388196,0.155275,0.674986,1.5,-0.9,0,9491,46.766,28.454,13306.8
487819752,0.634765,2.223,92.691,0.123466,-0.290835,0.917899,1.3124,-3.06744,0.00313717,2.18893,1.39875,0.48944,1.5,-0.9,0,9491,46.737,28.454,13298.5
487920134,0.634765,2.223,92.6869,0.188632,-0.376994,0.903222,1.31458,-2.67196,-0.0520482,3.19746,2.1617,1.22066,1.5,-0.9,0,9491,46.737,28.454,13298.5
488020548,0.634765,2.223,92.6643,0.214466,-0.41962,0.896167,1.32895,-2.15667,-0.0843491,3.75647,2.51273,2.39321,1.5,-0.9,0,9491,46.737,28.454,13298.5
488120925,0.634765,2.223,92.6846,0.214705,-0.426897,0.899614,1.34989,-1.59418,-0.0777075,4.03217,2.72661,2.63344,1.5,-0.9,0,9491,46.737,28.454,13298.5
488221272,0.634765,2.223,92.7074,0.178021,-0.384788,0.914611,1.36848,-1.05922,-0.0929489,3.87794,2.54055,2.41863,1.5,-0.9,0,9491,46.737,28.454,13298.5
488321633,0.634765,2.223,92.7016,0.13092,-0.321709,0.929073,1.39569,-0.597567,-0.0719697,3.40022,2.14856,1.6971,1.5,-0.9,0,9491,46.737,28.454,13298.5
488421950,0.634765,2.223,92.7004,0.0775383,-0.255473,0.938724,1.39866,-0.236004,-0.0688116,2.64567,1.80399,1.10348,1.5,-0.9,0,9491,46.737,28.454,13298.5
488522304,0.634765,2.223,92.6953,0.0273084,-0.196401,0.94209,1.41207,0.0329995,-0.0595543,2.04335,1.2811,0.513308,2.8,-4.2,0,9491,46.737,28.454,13298.5
488623457,0.634765,2.223,92.7067,-0.0302785,-0.15168,0.944524,1.43901,0.215342,-0.0494275,1.41829,0.659908,0.359977,2.8,-4.2,0,9491,46.737,28.454,13298.5
488725193,0.634765,2.223,92.694,-0.163414,-0.13251,0.953101,1.49379,0.333011,-0.0322678,1.08796,-0.0843675,0.282015,2.8,-4.2,0,9491,46.737,28.454,13298.5
488825558,0.634765,2.223,92.672,-0.280791,-0.135614,0.957168,1.70804,0.342055,-0.0882824,1.06268,-1.80967,0.0348207,2.8,-4.2,0,9460,46.716,29.743,13894.7
488925935,0.634765,2.223,92.6684,-0.359897,-0.14314,0.959046,2.00001,0.285252,-0.078221,1.13167,-2.56334,1.43773,2.8,-4.2,0,9460,46.716,29.743,13894.7
489026298,0.634765,2.223,92.679,-0.390915,-0.153893,0.960991,2.341,0.200419,-0.0652651,1.19447,-2.89291,1.66721,2.8,-4.2,0,9460,46.716,29.743,13894.7
489126660,0.634765,2.223,92.6945,-0.401395,-0.1635,0.961509,2.70855,0.0984915,-0.0497357,1.2201,-3.16106,1.68744,2.8,-4.2,0,9460,46.716,29.743,13894.7
489227022,0.634765,2.223,92.6938,-0.395206,-0.173505,0.964144,3.06581,0.00154692,-0.0476238,1.28852,-3.05086,1.41569,2.8,-4.2,0,9460,46.716,29.743,13894.7
489327389,0.634765,2.223,92.7126,-0.386156,-0.185211,0.965838,3.41741,-0.0844118,-0.0419743,1.39315,-2.90837,1.40045,2.8,-4.2,0,9460,46.716,29.743,13894.7
489427743,0.634765,2.223,92.7171,-0.36128,-0.185833,0.964671,3.7689,-0.16171,-0.0386655,1.38144,-2.66499,1.72356,2.8,-4.2,0,9460,46.716,29.743,13894.7
489528132,0.634765,2.223,92.7295,-0.313798,-0.174423,0.95933,4.08403,-0.217029,-0.0180496,1.37641,-2.33304,1.00554,-0.7,-3.5,0,9460,46.716,29.743,13894.7
489628422,0.634765,2.223,92.7479,-0.262146,-0.138651,0.952342,4.33662,-0.254098,-0.00795729,1.33827,-1.76146,1.12397,-0.7,-3.5,0,9460,46.716,29.743,13894.7
489728748,0.634765,2.223,92.7724,-0.151039,0.0976351,0.93694,4.52731,-0.319077,0.0962932,0.39764,-1.20822,1.18438,-0.7,-3.5,0,9460,46.716,29.743,13894.7
489829155,0.634765,2.223,92.7948,-0.0783341,0.296536,0.930657,4.39561,-0.55802,0.0910668,-2.80647,-0.085555,-0.139849,-0.7,-3.5,0,9460,46.764,28.285,13227.2
489929483,0.634766,2.223,92.7772,-0.0502687,0.400325,0.929153,4.14377,-0.869604,-0.000939708,-3.76593,0.42274,0.960256,-0.7,-3.5,0,9460,46.764,28.285,13227.2
490029783,0.634766,2.223,92.7283,-0.0438942,0.40069,0.925435,3.82593,-1.25021,-0.0335121,-4.30914,0.576413,1.80235,-0.7,-3.5,0,9460,46.764,28.285,13227.2
490130155,0.634766,2.223,92.7113,-0.0399987,0.344212,0.924235,3.54203,-1.59449,-0.0575058,-3.9402,0.447946,1.20244,-0.7,-3.5,0,9460,46.764,28.285,13227.2
490230523,0.634766,2.223,92.6804,-0.0436772,0.277956,0.922584,3.28583,-1.87562,-0.0848581,-3.20909,0.514019,1.30337,-0.7,-3.5,0,9460,46.764,28.285,13227.2
490330931,0.634766,2.223,92.6582,-0.0494509,0.214853,0.924813,3.07799,-2.09584,-0.0962269,-2.58519,0.472932,0.789798,-0.7,-3.5,0,9460,46.764,28.285,13227.2
490431272,0.634766,2.223,92.6373,-0.0564884,0.158146,0.927527,2.90744,-2.27238,-0.0936357,-1.96576,0.440194,0.593477,-0.7,-3.5,0,9460,46.764,28.285,13227.2
490531802,0.634766,2.223,92.6418,-0.067795,0.104842,0.93127,2.78465,-2.40684,-0.0960096,-1.37731,0.180019,0.124147,-3.2,3.2,0,9460,46.764,28.285,13227.2
490632149,0.634766,2.223,92.6709,-0.0407697,0.074124,0.932494,2.69136,-2.50073,-0.0672988,-0.813958,0.177306,0.975316,-3.2,3.2,0,9460,46.764,28.285,13227.2
490732462,0.634766,2.223,92.7254,0.142362,0.100456,0.945355,2.56519,-2.55403,0.0221055,-0.824865,0.960987,0.572091,-3.2,3.2,0,9460,46.764,28.285,13227.2
490832817,0.634766,2.223,92.7819,0.30017,0.128153,0.959806,2.23273,-2.49887,0.0162118,-1.20578,3.03861,0.425611,-3.2,3.2,0,9460,46.764,28.285,13227.2
490933165,0.634766,2.223,92.7849,0.394191,0.149092,0.96746,1.7917,-2.38561,-0.0484402,-1.34219,4.05428,1.48588,-3.2,3.2,0,9460,46.764,28.285,13227.2
491033535,0.634766,2.223,92.7537,0.442068,0.159381,0.970702,1.25198,-2.21804,-0.0553034,-1.46636,4.79409,2.19843,-3.2,3.2,0,9460,46.764,28.285,13227.2
491133896,0.634766,2.223,92.7262,0.464283,0.168713,0.970058,0.698563,-2.04686,-0.0901593,-1.53899,4.94154,2.2401,-3.2,3.2,0,9460,46.764,28.285,13227.2
491234236,0.634766,2.223,92.7125,0.461955,0.174622,0.970691,0.115795,-1.85952,-0.116481,-1.55244,4.94396,2.78198,-3.2,3.2,0,9460,46.764,28.285,13227.2
491334612,0.634766,2.223,92.7197,0.447713,0.168732,0.967549,-0.467644,-1.68811,-0.125856,-1.70467,4.85916,2.85671,-3.2,3.2,0,9447,46.757,28.29,13227.6
491434975,0.634766,2.223,92.7248,0.428019,0.160197,0.963742,-1.04191,-1.50039,-0.114049,-1.56088,4.82126,2.7719,-3.2,3.2,0,9447,46.757,28.29,13227.6
491535352,0.634766,2.223,92.7165,0.406009,0.158566,0.962493,-1.58768,-1.31721,-0.0954063,-1.5118,4.65473,2.35703,3.8,0.7,0,9447,46.757,28.29,13227.6
491635677,0.634766,2.223,92.701,0.377005,0.156111,0.959285,-2.09224,-1.1453,-0.0851903,-1.47237,4.39672,1.72042,3.8,0.7,0,9447,46.757,28.29,13227.6
491736062,0.634766,2.223,92.6961,0.260739,-0.00120127,0.935483,-2.58937,-0.985052,-0.00996222,-1.35206,3.88669,3.05993,3.8,0.7,0,9447,46.757,28.29,13227.6
491836439,0.634766,2.223,92.7142,0.062802,-0.243064,0.938143,-2.79316,-0.756325,0.0627436,0.916013,2.30389,0.757838,3.8,0.7,0,9447,46.757,28.29,13227.6
491936793,0.634766,2.223,92.7025,-0.086407,-0.387355,0.95818,-2.66214,-0.483134,-0.0283286,3.11266,0.153392,0.458579,3.8,0.7,0,9447,46.757,28.29,13227.6
492037137,0.634766,2.223,92.6663,-0.167268,-0.456207,0.972381,-2.35321,-0.171157,-0.0691654,4.10016,-0.84209,1.75288,3.8,0.7,0,9447,46.757,28.29,13227.6
492137499,0.634766,2.223,92.6387,-0.195734,-0.478704,0.975667,-1.92639,0.160473,-0.0735836,4.51093,-1.36468,2.66514,3.8,0.7,0,9447,46.757,28.29,13227.6
492237857,0.634766,2.223,92.6432,-0.194245,-0.478669,0.971686,-1.46716,0.492735,-0.0540842,4.45514,-1.43804,3.02476,3.8,0.7,0,9447,46.757,28.29,13227.6
492338202,0.634766,2.223,92.6292,-0.172696,-0.469375,0.963927,-1.01358,0.817982,-0.0170313,4.61376,-1.34765,2.3682,3.8,0.7,0,9403,46.796,26.756,12520.7
492438568,0.634765,2.223,92.5859,-0.151142,-0.455586,0.957711,-0.594065,1.14149,-0.0118796,4.31866,-1.15098,2.35739,3.8,0.7,0,9403,46.796,26.756,12520.7
492538954,0.634766,2.223,92.5465,-0.131976,-0.440476,0.953929,-0.196121,1.46315,0.00460325,4.27721,-1.02131,1.9721,4.5,-2.7,0,9403,46.796,26.756,12520.7
492639300,0.634766,2.223,92.5257,-0.126005,-0.422313,0.953233,0.167517,1.77487,0.0245681,3.87181,-0.739839,2.13771,4.5,-2.7,0,9403,46.796,26.756,12520.7
492739667,0.634766,2.223,92.5026,-0.211955,-0.36036,0.976649,0.516525,2.06723,0.0393318,3.60554,-0.93382,1.95808,4.5,-2.7,0,9403,46.796,26.756,12520.7
492840062,0.634766,2.223,92.4451,-0.300968,-0.285436,0.982212,0.901975,2.21337,0.0487841,2.78709,-1.85584,1.82555,4.5,-2.7,0,9403,46.796,26.756,12520.7
492940431,0.634766,2.223,92.4136,-0.364467,-0.236162,0.975737,1.32041,2.24036,0.0476292,2.20518,-2.76398,1.46444,4.5,-2.7,0,9403,46.796,26.756,12520.7
493040781,0.634766,2.223,92.4016,-0.391524,-0.210569,0.969264,1.75634,2.1907,0.0482478,1.7069,-3.07496,1.97991,4.5,-2.7,0,9403,46.796,26.756,12520.7
493141145,0.634766,2.223,92.3981,-0.393884,-0.203077,0.963968,2.18974,2.1179,0.0678848,1.60761,-3.2257,1.95687,4.5,-2.7,0,9403,46.796,26.756,12520.7
493241560,0.634766,2.223,92.3801,-0.382827,-0.205429,0.961444,2.59463,2.02461,0.0811067,1.31189,-3.0937,2.06503,4.5,-2.7,0,9403,46.796,26.756,12520.7
493341915,0.634766,2.223,92.3833,-0.36462,-0.215637,0.962328,2.99115,1.94344,0.0961794,1.45754,-2.97875,1.63809,4.5,-2.7,0,9403,46.796,26.756,12520.7
493442278,0.634766,2.223,92.4154,-0.335823,-0.220204,0.961728,3.37459,1.88114,0.107149,1.62041,-2.90985,1.45795,4.5,-2.7,0,9403,46.661,28.9,13485
493542699,0.634766,2.223,92.4332,-0.284937,-0.211487,0.956861,3.71138,1.83793,0.120001,1.49467,-2.39394,1.26817,-2.2,-4.2,0,9403,46.661,28.9,13485
493643042,0.634766,2.223,92.4661,-0.236191,-0.185346,0.949932,3.98014,1.81293,0.127837,1.34196,-1.88938,0.771448,-2.2,-4.2,0,9403,46.661,28.9,13485
493743379,0.634766,2.223,92.5011,-0.182212,0.0235618,0.935616,4.20659,1.80063,0.217999,1.0709,-1.35106,1.38284,-2.2,-4.2,0,9403,46.661,28.9,13485
493843728,0.634766,2.223,92.5688,-0.156715,0.260924,0.920555,4.19897,1.58671,0.241868,-2.07597,-0.945819,-0.379061,-2.2,-4.2,0,9403,46.661,28.9,13485
493944078,0.634766,2.223,92.5587,-0.1595,0.381901,0.908481,4.04151,1.23516,0.132898,-3.68393,-0.631606,0.71361,-2.2,-4.2,0,9403,46.661,28.9,13485
494044450,0.634766,2.223,92.5378,-0.167479,0.439033,0.900495,3.83491,0.771428,0.0955857,-4.31652,-0.731437,2.07941,-2.2,-4.2,0,9403,46.661,28.9,13485
494144818,0.634766,2.223,92.5079,-0.168852,0.456458,0.895116,3.55224,0.18736,0.0318111,-4.73104,-0.674388,1.90877,-2.2,-4.2,0,9403,46.661,28.9,13485
494245179,0.634766,2.223,92.4821,-0.170604,0.455526,0.890422,3.30764,-0.321788,-0.0030119,-4.72949,-0.800751,2.38332,-2.2,-4.2,0,9403,46.661,28.9,13485
494345532,0.634766,2.223,92.4985,-0.172503,0.447862,0.888266,3.0542,-0.819834,-0.0158355,-4.45676,-0.635695,2.58078,-2.2,-4.2,0,9403,46.661,28.9,13485
494445885,0.634767,2.223,92.5254,-0.181846,0.426639,0.888734,2.80986,-1.30318,-0.0280622,-4.45732,-0.746693,1.90114,-2.2,-4.2,0,9403,46.661,33.274,15526
494546251,0.634767,2.223,92.5538,-0.198152,0.392767,0.889322,2.59089,-1.75892,-0.03615,-3.95295,-0.730192,2.16635,1.9,-1.5,0,9403,46.661,33.274,15526
494646593,0.634767,2.223,92.5802,-0.205894,0.34235,0.895833,2.40263,-2.19952,-0.0328638,-3.74069,-0.958936,1.97396,1.9,-1.5,0,9403,46.661,33.274,15526
494746945,0.634767,2.223,92.6194,-0.097145,0.12771,0.929516,2.26189,-2.58268,0.0367535,-2.93821,-0.883769,1.18043,1.9,-1.5,0,9403,46.661,33.274,15526
494847309,0.634767,2.223,92.6733,0.062318,-0.162566,0.930562,2.18155,-2.58526,0.0873545,0.370025,0.814358,-0.0674225,1.9,-1.5,0,9403,46.661,33.274,15526
494947693,0.634767,2.223,92.6997,0.160327,-0.339019,0.911483,2.13283,-2.28922,0.00444504,2.73312,2.15466,0.316512,1.9,-1.5,0,9403,46.661,33.274,15526
495048100,0.634767,2.223,92.7015,0.197089,-0.429503,0.896723,2.12539,-1.83928,-0.0252437,3.52054,2.36319,2.41081,1.9,-1.5,0,9403,46.661,33.274,15526
495148467,0.634767,2.223,92.7098,0.197019,-0.44757,0.897693,2.15619,-1.29739,-0.0273104,4.38739,2.57578,2.30973,1.9,-1.5,0,9403,46.661,33.274,15526
495248816,0.634767,2.223,92.7108,0.168619,-0.394818,0.913592,2.18991,-0.790902,-0.0580519,3.90595,2.27593,2.49852,1.9,-1.5,0,9403,46.661,33.274,15526
495349175,0.634767,2.223,92.7262,0.119189,-0.319203,0.926975,2.1954,-0.364586,-0.0371759,3.21886,2.08304,1.51244,1.9,-1.5,0,9403,46.661,33.274,15526
495449506,0.634767,2.223,92.7267,0.0668982,-0.243792,0.935228,2.18941,-0.0420667,-0.0494892,2.50159,1.69504,0.521935,1.9,-1.5,0,9403,46.611,33.129,15441.8
495549976,0.634767,2.223,92.7252,0.0168796,-0.184816,0.938689,2.18305,0.196903,-0.0559954,1.69103,1.14618,0.481982,-0.1,-0.8,0,9403,46.611,33.129,15441.8
495650347,0.634767,2.223,92.7151,-0.0151014,-0.112199,0.94092,2.20244,0.369427,-0.0465463,1.30388,0.628758,0.791586,-0.1,-0.8,0,9403,46.611,33.129,15441.8
495750724,0.634767,2.223,92.7207,0.0189319,0.0944693,0.939276,2.18565,0.458521,-0.0178542,0.0464793,0.541039,0.276855,-0.1,-0.8,0,9403,46.611,33.129,15441.8
495851025,0.634767,2.223,92.7033,0.0460839,0.213381,0.942561,1.96984,0.368029,-0.0201267,-2.20116,1.01368,-0.0418436,-0.1,-0.8,0,9403,46.611,33.129,15441.8
495951396,0.634767,2.223,92.6724,0.0540044,0.256658,0.944692,1.70486,0.234863,-0.071489,-2.67616,1.16435,0.791123,-0.1,-0.8,0,9403,46.611,33.129,15441.8
496051745,0.634767,2.223,92.63,0.0406995,0.2505,0.942711,1.42497,0.0787994,-0.0871244,-2.8736,1.04938,0.874017,-0.1,-0.8,0,9403,46.611,33.129,15441.8
496152124,0.634767,2.223,92.6316,0.0173001,0.212207,0.940336,1.17939,-0.0654056,-0.0831969,-2.58736,0.922882,0.485462,-0.1,-0.8,0,9403,46.611,33.129,15441.8
496252453,0.634767,2.223,92.6208,-0.00450829,0.16495,0.938174,0.980253,-0.188083,-0.0831892,-2.13359,0.697961,0.175395,-0.1,-0.8,0,9403,46.611,33.129,15441.8
496352822,0.634767,2.223,92.6156,-0.022445,0.116829,0.937985,0.841135,-0.300181,-0.0666369,-1.62463,0.380323,0.310581,-0.1,-0.8,0,9403,46.611,33.129,15441.8
496453171,0.634767,2.223,92.6318,-0.0329837,0.0802033,0.938551,0.725502,-0.3773,-0.0455308,-1.15401,0.376202,0.418336,-0.1,-0.8,0,9371,46.65,28.875,13470.2
496553585,0.634767,2.223,92.6568,-0.0382758,0.0487396,0.9387,0.644076,-0.425759,-0.0278876,-0.745071,0.288963,-0.193743,2.4,-2.8,0,9371,46.65,28.875,13470.2
496653972,0.634767,2.223,92.6483,-0.0597744,-0.00215019,0.937015,0.577265,-0.460057,-0.0192209,-0.529538,0.319537,0.3871,2.4,-2.8,0,9371,46.65,28.875,13470.2
496755344,0.634767,2.223,92.6445,-0.148718,-0.142365,0.947234,0.584566,-0.468464,0.0142732,0.457609,-0.320969,-0.043088,2.4,-2.8,0,9371,46.65,28.875,13470.2
496858489,0.634767,2.223,92.6465,-0.239984,-0.248352,0.96675,0.761657,-0.410259,-0.0297247,1.83213,-1.29553,-0.193143,2.4,-2.8,0,9371,46.65,28.875,13470.2
496958873,0.634767,2.223,92.6462,-0.298395,-0.309317,0.98452,1.07406,-0.322863,-0.0467542,2.58632,-1.87683,1.41103,2.4,-2.8,0,9371,46.65,28.875,13470.2
497059229,0.634767,2.223,92.6583,-0.32464,-0.332113,0.993228,1.46624,-0.218284,-0.0384072,2.82009,-2.11549,2.22733,2.4,-2.8,0,9371,46.65,28.875,13470.2
497159582,0.634767,2.223,92.6602,-0.328853,-0.329474,0.993507,1.88829,-0.10981,-0.0189297,3.02836,-2.25941,2.23219,2.4,-2.8,0,9371,46.65,28.875,13470.2
497259935,0.634767,2.223,92.665,-0.298019,-0.293792,0.982264,2.29122,-0.0076184,-0.00360973,2.94426,-2.25945,1.62256,2.4,-2.8,0,9371,46.65,28.875,13470.2
497360333,0.634767,2.223,92.654,-0.259516,-0.250874,0.970638,2.63732,0.0658322,0.0134926,2.43156,-2.05028,1.26912,2.4,-2.8,0,9371,46.65,28.875,13470.2
497460668,0.634767,2.223,92.6377,-0.21559,-0.207721,0.960474,2.92081,0.128066,0.0302252,1.92491,-1.55985,1.11592,2.4,-2.8,0,9371,46.659,28.613,13350.5
497562137,0.634767,2.223,92.6404,-0.179913,-0.170134,0.952809,3.12984,0.169862,0.0395771,1.56613,-1.33789,0.0900095,3.7,2.6,0,9371,46.659,28.613,13350.5
497664405,0.634767,2.223,92.6426,-0.135799,-0.140025,0.943573,3.2837,0.214075,0.0317385,1.14388,-0.866768,0.195747,3.7,2.6,0,9371,46.659,28.613,13350.5
497767674,0.634767,2.223,92.639,0.0994991,-0.129585,0.922521,3.38914,0.280718,0.0877771,0.846016,0.35035,0.50482,3.7,2.6,0,9371,46.659,28.613,13350.5
497869704,0.634767,2.223,92.6766,0.276116,-0.12513,0.916257,3.22682,0.500015,0.0813058,0.826633,2.98707,0.0207905,3.7,2.6,0,9371,46.659,28.613,13350.5
497970067,0.634767,2.223,92.6872,0.383118,-0.122729,0.915818,2.96301,0.784862,-0.00489677,0.732909,3.81378,1.11644,3.7,2.6,0,9371,46.659,28.613,13350.5
498070379,0.634768,2.223,92.6702,0.415718,-0.120344,0.918767,2.61684,1.13659,-0.0341064,0.760796,4.52586,1.8985,3.7,2.6,0,9371,46.659,28.613,13350.5
498170648,0.634768,2.223,92.6447,0.421509,-0.119659,0.922818,2.26031,1.49843,-0.0533426,0.780142,4.61764,1.82993,3.7,2.6,0,9371,46.659,28.613,13350.5
498270899,0.634768,2.223,92.6134,0.414447,-0.123163,0.924903,1.90803,1.84914,-0.0742737,0.740718,4.30816,2.37806,3.7,2.6,0,9371,46.659,28.613,13350.5
498371174,0.634768,2.223,92.5978,0.392013,-0.131514,0.925897,1.55105,2.20751,-0.0770878,0.719475,4.24315,2.22513,3.7,2.6,0,9371,46.659,28.613,13350.5
498471510,0.634768,2.223,92.6202,0.373744,-0.144717,0.92382,1.21782,2.55414,-0.0653272,0.80863,4.10537,1.96853,3.7,2.6,0,9371,46.649,29.7,13854.8
498571923,0.634768,2.223,92.6137,0.341956,-0.163209,0.920767,0.912438,2.90332,-0.0374412,1.01622,3.91968,1.72055,3.8,-3.9,0,9371,46.649,29.7,13854.8
498672289,0.634768,2.223,92.6202,0.262435,-0.165773,0.926239,0.653564,3.23674,-0.0131349,1.11895,3.49418,1.3769,3.8,-3.9,0,9371,46.649,29.7,13854.8
498772599,0.634768,2.223,92.6316,-0.0142124,-0.129549,0.952854,0.482788,3.48899,0.0207659,0.999664,2.24114,0.324385,3.8,-3.9,0,9371,46.649,29.7,13854.8
498872896,0.634768,2.223,92.6446,-0.290776,-0.0776067,0.953825,0.579251,3.49497,0.0600331,0.579508,-1.3773,0.238063,3.8,-3.9,0,9371,46.649,29.7,13854.8
498973738,0.634768,2.223,92.6926,-0.438722,-0.0636078,0.947964,0.825718,3.30983,0.0133216,0.0180464,-3.48521,0.535785,3.8,-3.9,0,9371,46.649,29.7,13854.8
499074149,0.634768,2.223,92.6697,-0.500166,-0.0654684,0.946523,1.17663,3.04779,-0.013727,-0.0447252,-4.13431,2.14566,3.8,-3.9,0,9371,46.649,29.7,13854.8
499174517,0.634768,2.223,92.6801,-0.509561,-0.0701621,0.946516,1.58023,2.76446,-0.00341934,0.100971,-4.51553,2.29382,3.8,-3.9,0,9371,46.649,29.7,13854.8
499274877,0.634768,2.223,92.7067,-0.497133,-0.0783542,0.948967,1.96821,2.48557,-0.00296597,0.0750934,-4.41432,1.90803,3.8,-3.9,0,9371,46.649,29.7,13854.8
499375214,0.634768,2.223,92.6702,-0.477533,-0.0881898,0.95154,2.35657,2.22716,0.00319244,0.260449,-4.13167,2.11983,3.8,-3.9,0,9371,46.649,29.7,13854.8
499475621,0.634768,2.223,92.656,-0.455066,-0.102115,0.95631,2.72464,1.98125,0.00529738,0.239911,-3.97002,1.81869,3.8,-3.9,0,9371,46.649,29.7,13854.8
499575995,0.634768,2.223,92.6455,-0.436747,-0.114995,0.96005,3.08231,1.77119,0.000313696,0.417781,-3.55087,1.99797,1.7,3.6,0,9371,46.613,29.479,13741
499676335,0.634768,2.223,92.6606,-0.406059,-0.124042,0.959616,3.43066,1.57887,-0.00061385,0.523001,-3.47931,1.49551,1.7,3.6,0,9371,46.613,29.479,13741
499776666,0.634768,2.223,92.6803,-0.20233,-0.0770809,0.940048,3.77827,1.41558,0.0331099,0.71452,-3.06778,1.51622,1.7,3.6,0,9371,46.613,29.479,13741
499877034,0.634768,2.223,92.698,0.117627,0.00917221,0.935673,3.85129,1.34758,0.0968171,-0.0706426,-0.355175,0.277269,1.7,3.6,0,9371,46.613,29.479,13741
499977368,0.634768,2.223,92.7144,0.331683,0.0633998,0.949037,3.57931,1.41849,0.0616364,-0.982745,3.11142,0.0796199,1.7,3.6,0,9371,46.613,29.479,13741
500077749,0.634768,2.223,92.6894,0.436756,0.0852875,0.960014,3.14889,1.54487,0.00996382,-1.26025,4.09432,1.95455,1.7,3.6,0,9371,46.613,29.479,13741
500178129,0.634768,2.223,92.6952,0.479513,0.0990185,0.967,2.63873,1.72191,-0.0236537,-1.33262,4.8342,2.23055,1.7,3.6,0,9371,46.613,29.479,13741
500278485,0.634768,2.223,92.6578,0.491558,0.112426,0.975725,2.10808,1.90589,-0.0910579,-1.35798,5.00011,2.29919,1.7,3.6,0,9371,46.613,29.479,13741
500378834,0.634768,2.223,92.6278,0.484487,0.117849,0.980374,1.53252,2.0845,-0.108994,-1.48089,4.8953,3.06311,1.7,3.6,0,9371,46.613,29.479,13741
500479115,0.634768,2.223,92.585,0.461323,0.114474,0.980684,0.949183,2.2621,-0.108193,-1.63542,4.94663,2.78099,1.7,3.6,0,9371,46.613,29.479,13741
500579446,0.634768,2.223,92.5689,0.428643,0.100999,0.975345,0.386124,2.4277,-0.10844,-1.53995,4.62626,2.82148,1.3,4.7,0,9371,46.621,29.732,13861.4
500679798,0.634768,2.223,92.5447,0.403556,0.0850286,0.968263,-0.148681,2.58967,-0.064304,-1.434,4.332,2.52989,1.3,4.7,0,9371,46.621,29.732,13861.4
500780148,0.634768,2.223,92.5394,0.39101,0.0859082,0.965,-0.654626,2.7447,-0.0249908,-1.45363,4.19947,2.25222,1.3,4.7,0,9371,46.621,29.732,13861.4
500880489,0.634768,2.223,92.5623,0.383281,0.0638107,0.955483,-1.12656,2.8818,-0.0031722,-1.36392,3.86934,1.73628,1.3,4.7,0,9371,46.621,29.732,13861.4
500980840,0.634768,2.223,92.5782,0.359243,0.0374838,0.946963,-1.56639,3.04412,0.0135012,-1.0672,3.84104,1.5406,1.3,4.7,0,9371,46.621,29.732,13861.4
501081174,0.634768,2.223,92.5834,0.307445,0.0104111,0.939109,-1.94407,3.21032,0.031947,-0.707353,3.29753,1.52758,1.3,4.7,0,9371,46.621,29.732,13861.4
501181541,0.634768,2.223,92.5985,0.248404,-0.0131732,0.934024,-2.24266,3.35631,0.0562859,-0.426995,2.78734,0.652332,1.3,4.7,0,9371,46.621,29.732,13861.4
501281886,0.634768,2.223,92.6076,0.195421,-0.0305299,0.931553,-2.46246,3.4903,0.0520958,-0.136793,2.19723,0.0865267,1.3,4.7,0,9371,46.621,29.732,13861.4
501382273,0.634768,2.223,92.6186,0.153612,-0.0402871,0.930895,-2.61988,3.60145,0.0482516,0.0386891,1.67163,-0.128139,1.3,4.7,0,9371,46.621,29.732,13861.4
501482610,0.634768,2.223,92.6074,0.119156,-0.0444104,0.93084,-2.73809,3.69504,0.0422325,0.126093,1.29391,0.0025322,1.3,4.7,0,9371,46.621,29.732,13861.4
501583009,0.634768,2.223,92.6055,0.0944833,-0.0441226,0.931703,-2.829,3.77366,0.0341888,0.148997,1.01733,-0.255545,5,4.4,0,9358,46.599,29.204,13608.8
501683394,0.634768,2.223,92.6002,0.0717418,-0.0544618,0.931458,-2.88144,3.83929,0.0214107,0.250187,0.687243,-0.286981,5,4.4,0,9358,46.599,29.204,13608.8
501783791,0.634768,2.223,92.6169,0.028009,-0.185926,0.935017,-2.91857,3.89825,0.0529605,0.471096,0.425471,0.276467,5,4.4,0,9358,46.599,29.204,13608.8
501884122,0.634768,2.223,92.6219,-0.0125469,-0.32244,0.938322,-2.81052,4.05094,0.00296426,2.16914,-0.0432304,-0.389395,5,4.4,0,9358,46.599,29.204,13608.8
501984500,0.634768,2.223,92.6202,-0.0314954,-0.414264,0.938152,-2.59613,4.29926,-0.0445634,3.11865,-0.262863,0.933236,5,4.4,0,9358,46.599,29.204,13608.8
502084831,0.634768,2.223,92.6214,-0.0342123,-0.455744,0.934277,-2.31397,4.61449,-0.0452051,3.70942,-0.359822,1.98447,5,4.4,0,9358,46.599,29.204,13608.8
502185217,0.634768,2.223,92.6266,-0.0209871,-0.468032,0.928248,-1.98875,4.95479,-0.030035,4.00514,-0.438968,2.14872,5,4.4,0,9358,46.599,29.204,13608.8
502285558,0.634768,2.223,92.6163,1.08017e-05,-0.449134,0.922946,-1.62022,5.37722,-0.0190523,4.11125,-0.165973,1.90735,5,4.4,0,9358,46.599,29.204,13608.8
502385883,0.634768,2.223,92.6235,0.015852,-0.393796,0.921837,-1.34531,5.70328,-0.00176516,3.6519,-0.189197,1.61151,5,4.4,0,9358,46.599,29.204,13608.8
502486198,0.634768,2.223,92.6147,0.0285052,-0.330363,0.922481,-1.13581,5.95879,0.0131285,2.87973,-0.0209236,1.19106,5,4.4,0,9358,46.599,29.204,13608.8
502586619,0.634768,2.223,92.6275,0.0394619,-0.273131,0.92394,-0.976852,6.17324,0.0310612,2.24101,0.120225,1.02907,1.5,-2,0,9358,46.594,29.844,13905.5
502686984,0.634768,2.223,92.6408,0.0294671,-0.210646,0.930882,-0.882072,6.34461,0.0308354,1.6934,0.462231,0.449644,1.5,-2,0,9358,46.594,29.844,13905.5
502787313,0.634768,2.223,92.6495,-0.12307,-0.0676214,0.947568,-0.791164,6.44069,0.0782769,0.843037,-0.227815,0.711943,1.5,-2,0,9358,46.594,29.844,13905.5
502887675,0.634768,2.223,92.6868,-0.29682,0.0763856,0.929736,-0.630679,6.23037,0.113172,-1.0459,-2.50124,0.238372,1.5,-2,0,9358,46.594,29.844,13905.5
502988057,0.634768,2.223,92.6945,-0.392495,0.143171,0.910173,-0.455954,5.87489,0.0226967,-1.98798,-3.4218,0.962594,1.5,-2,0,9358,46.594,29.844,13905.5
503088401,0.634768,2.223,92.6737,-0.445524,0.182858,0.893216,-0.245324,5.42164,-0.0160846,-2.26184,-3.80725,2.30544,1.5,-2,0,9358,46.594,29.844,13905.5
503188738,0.634768,2.223,92.6694,-0.46295,0.202741,0.882184,-0.016799,4.91091,-0.0351282,-2.50995,-4.29728,2.33417,1.5,-2,0,9358,46.594,29.844,13905.5
503289080,0.634768,2.223,92.6626,-0.462238,0.213311,0.875348,0.192488,4.38988,-0.0658382,-2.57236,-4.07456,2.64643,1.5,-2,0,9358,46.594,29.844,13905.5
503389436,0.634768,2.223,92.6192,-0.444296,0.214695,0.873936,0.391662,3.83787,-0.0603672,-2.72582,-4.05474,2.70388,1.5,-2,0,9358,46.594,29.844,13905.5
503489802,0.634768,2.223,92.5985,-0.426704,0.203184,0.879143,0.575287,3.30763,-0.0517064,-2.5137,-3.72733,2.99809,1.5,-2,0,9358,46.594,29.844,13905.5
503590195,0.634768,2.223,92.5985,-0.416094,0.183751,0.8868,0.745889,2.79921,-0.0368889,-2.52542,-3.76141,2.08133,-1.6,-4.2,0,9358,46.554,29.937,13936.9
503690539,0.634768,2.223,92.5969,-0.403774,0.181349,0.890565,0.921245,2.32191,-0.0327978,-2.25316,-3.82702,1.73915,-1.6,-4.2,0,9358,46.554,29.937,13936.9
503790884,0.634768,2.223,92.5917,-0.361943,0.226837,0.891194,1.07604,1.84686,-0.00763985,-2.45489,-3.31141,2.11208,-1.6,-4.2,0,9358,46.554,29.937,13936.9
503891247,0.634768,2.223,92.6047,-0.332889,0.248006,0.894117,1.15526,1.3681,0.00781874,-2.77285,-2.94924,1.70889,-1.6,-4.2,0,9358,46.554,29.937,13936.9
503991705,0.634768,2.223,92.6176,-0.317354,0.255398,0.895934,1.20362,0.911404,-0.00308507,-2.89249,-2.68556,1.47201,-1.6,-4.2,0,9358,46.554,29.937,13936.9
504092205,0.634768,2.223,92.6245,-0.310406,0.249254,0.897532,1.24167,0.460707,-0.00493742,-2.84302,-2.51773,1.78526,-1.6,-4.2,0,9358,46.554,29.937,13936.9
504193377,0.634768,2.223,92.6587,-0.31039,0.236657,0.89978,1.27021,0.0317318,-0.00420181,-2.73371,-2.39486,1.57829,-1.6,-4.2,0,9358,46.554,29.937,13936.9
504294273,0.634768,2.223,92.6943,-0.312839,0.219171,0.903991,1.30614,-0.361228,-0.0115259,-2.45263,-2.33863,1.20868,-1.6,-4.2,0,9358,46.554,29.937,13936.9
504394610,0.634768,2.223,92.7169,-0.315946,0.203475,0.907229,1.35285,-0.732545,-0.0303139,-2.26485,-2.40269,0.945673,-1.6,-4.2,0,9358,46.554,29.937,13936.9
504497731,0.634768,2.223,92.7234,-0.315712,0.188583,0.910907,1.41865,-1.09183,-0.0228873,-2.1697,-2.57548,0.832537,-1.6,-4.2,0,9358,46.554,29.937,13936.9
504598120,0.634768,2.223,92.7274,-0.317964,0.17559,0.914202,1.48377,-1.4244,-0.049876,-1.91434,-2.40881,1.02879,-4.6,-0.6,0,9358,46.554,29.937,13936.9
504698486,0.634768,2.223,92.7293,-0.306571,0.168006,0.915518,1.54666,-1.74682,-0.0560572,-1.8428,-2.28382,1.0985,-4.6,-0.6,0,9327,46.561,29.68,13819.3
504798843,0.634768,2.223,92.7146,-0.147535,0.230772,0.929553,1.62977,-2.08128,0.0293642,-1.7022,-2.20257,2.26351,-4.6,-0.6,0,9327,46.561,29.68,13819.3
504899219,0.634768,2.223,92.7147,0.062553,0.289207,0.956846,1.47624,-2.31165,0.0442478,-2.62598,0.0831087,0.215602,-4.6,-0.6,0,9327,46.561,29.68,13819.3
504999595,0.634768,2.223,92.7258,0.18964,0.315422,0.968315,1.14239,-2.44049,-0.041175,-2.9174,1.86055,0.430139,-4.6,-0.6,0,9327,46.561,29.68,13819.3
505099948,0.634768,2.223,92.7367,0.245906,0.326263,0.968539,0.706686,-2.53732,-0.0768265,-2.97019,2.62485,1.49912,-4.6,-0.6,0,9327,46.561,29.68,13819.3
505200363,0.634768,2.223,92.7454,0.25423,0.331771,0.962626,0.220518,-2.6092,-0.0962694,-3.0918,2.99633,1.78767,-4.6,-0.6,0,9327,46.561,29.68,13819.3
505300724,0.634768,2.223,92.7537,0.229375,0.33624,0.954868,-0.267103,-2.68088,-0.0920015,-3.05084,2.93336,1.94606,-4.6,-0.6,0,9327,46.561,29.68,13819.3
505401075,0.634768,2.223,92.7652,0.1883,0.343409,0.94868,-0.725315,-2.76663,-0.102099,-3.1731,2.647,1.2798,-4.6,-0.6,0,9327,46.561,29.68,13819.3
505501426,0.634768,2.223,92.783,0.135854,0.331738,0.941789,-1.14452,-2.88061,-0.109941,-3.01373,2.19362,1.46344,-4.6,-0.6,0,9327,46.561,29.68,13819.3
505601819,0.634768,2.223,92.8018,0.0800816,0.298715,0.935488,-1.51197,-3.0174,-0.0972623,-2.80981,1.65109,1.49976,-2.7,4,0,9327,46.561,29.68,13819.3
505702132,0.634768,2.223,92.801,0.0373057,0.248618,0.932783,-1.79638,-3.15788,-0.09661,-2.48224,1.00293,0.871486,-2.7,4,0,9315,46.581,29.48,13732.1
505802519,0.634768,2.223,92.7907,0.137591,0.0923722,0.945716,-2.02264,-3.27248,0.00263847,-1.73424,0.719556,1.63843,-2.7,4,0,9315,46.581,29.48,13732.1
505902910,0.634768,2.223,92.8065,0.289896,-0.0432376,0.936297,-2.23369,-3.14617,-0.00209837,0.0235499,2.53049,-0.655439,-2.7,4,0,9315,46.581,29.48,13732.1
506003257,0.634768,2.223,92.8161,0.391478,-0.110466,0.914096,-2.48074,-2.83991,-0.116353,1.2011,3.64421,0.59007,-2.7,4,0,9315,46.581,29.48,13732.1
506103576,0.634768,2.223,92.8122,0.449655,-0.136065,0.897883,-2.78028,-2.42161,-0.148658,1.49279,4.21268,2.10395,-2.7,4,0,9315,46.581,29.48,13732.1
506203950,0.634767,2.223,92.811,0.474487,-0.136451,0.890446,-3.11092,-1.93043,-0.160466,1.75945,4.68028,2.59651,-2.7,4,0,9315,46.581,29.48,13732.1
506304346,0.634767,2.223,92.8267,0.471022,-0.118344,0.891782,-3.46294,-1.43731,-0.152513,1.53551,4.80084,2.76505,-2.7,4,0,9315,46.581,29.48,13732.1
506404685,0.634767,2.223,92.8565,0.426672,-0.0881274,0.900825,-3.80663,-0.972134,-0.152173,1.36674,4.73699,2.17776,-2.7,4,0,9315,46.581,29.48,13732.1
506505024,0.634767,2.223,92.835,0.345767,-0.0553317,0.911393,-4.11732,-0.569369,-0.123718,1.09002,4.02186,2.17402,-2.7,4,0,9315,46.581,29.48,13732.1
506605414,0.634767,2.223,92.8352,0.261578,-0.0218953,0.922694,-4.35508,-0.259874,-0.0916121,0.825684,3.23991,0.995472,4.2,2.8,0,9315,46.581,29.48,13732.1
506705757,0.634767,2.223,92.8169,0.180398,-0.00501153,0.92928,-4.53766,-0.042488,-0.0956241,0.409277,2.31492,0.517406,4.2,2.8,0,9270,46.498,29.998,13948.5
506806195,0.634767,2.223,92.8029,0.0709678,-0.154225,0.933293,-4.67238,0.111179,-0.0138846,0.36063,1.48606,1.2068,4.2,2.8,0,9270,46.498,29.998,13948.5
506906558,0.634767,2.223,92.791,-0.0261937,-0.313719,0.946118,-4.56962,0.340458,-0.0201223,2.44628,0.186989,-0.0253024,4.2,2.8,0,9270,46.498,29.998,13948.5
507006938,0.634767,2.223,92.7741,-0.0832779,-0.413485,0.955776,-4.31734,0.625626,-0.0953479,3.61681,-0.56652,0.937972,4.2,2.8,0,9270,46.498,29.998,13948.5
507107295,0.634767,2.223,92.7791,-0.106221,-0.462759,0.958926,-3.96158,0.974239,-0.116378,4.19447,-0.822336,2.38845,4.2,2.8,0,9270,46.498,29.998,13948.5
507207640,0.634767,2.223,92.7785,-0.112691,-0.479856,0.957287,-3.54771,1.34551,-0.121415,4.61453,-1.01579,2.43329,4.2,2.8,0,9270,46.498,29.998,13948.5
507308044,0.634767,2.223,92.7668,-0.103648,-0.477946,0.953311,-3.03205,1.78493,-0.108401,4.71721,-1.09127,2.43198,4.2,2.8,0,9270,46.498,29.998,13948.5
507408401,0.634767,2.223,92.7496,-0.0871578,-0.465971,0.94869,-2.70746,2.07222,-0.0963587,4.33862,-0.880108,2.69966,4.2,2.8,0,9270,46.498,29.998,13948.5
507508756,0.634767,2.223,92.7424,-0.0703736,-0.452547,0.944582,-2.25006,2.49676,-0.0897247,4.42563,-0.629418,2.03114,4.2,2.8,0,9270,46.498,29.998,13948.5
507609160,0.634767,2.223,92.7169,-0.0552133,-0.438374,0.941865,-1.89801,2.84232,-0.0785835,4.13191,-0.485564,2.03454,-0.4,0.3,0,9270,46.498,29.998,13948.5
507709478,0.634767,2.223,92.681,-0.0425772,-0.408026,0.937749,-1.57584,3.17131,-0.0777453,3.91343,-0.241542,1.7923,-0.4,0.3,0,9270,46.5,30.006,13952.8
507809913,0.634767,2.223,92.6621,-0.111419,-0.2137,0.952197,-1.25941,3.46804,0.0282761,3.33037,-0.443683,2.12536,-0.4,0.3,0,9270,46.5,30.006,13952.8
507910235,0.634767,2.223,92.6578,-0.223688,0.096733,0.933142,-1.06576,3.42958,0.0803142,0.160714,-1.66295,0.136392,-0.4,0.3,0,9270,46.5,30.006,13952.8
508010593,0.634767,2.223,92.6373,-0.295148,0.280947,0.896463,-0.982691,3.07742,0.00811544,-2.60148,-2.58759,0.637108,-0.4,0.3,0,9270,46.5,30.006,13952.8
508110971,0.634767,2.223,92.63,-0.329262,0.368853,0.874085,-0.94021,2.58832,-0.049611,-3.57848,-2.74758,2.11912,-0.4,0.3,0,9270,46.5,30.006,13952.8
508211343,0.634767,2.223,92.6611,-0.329573,0.387132,0.867868,-0.919879,2.01218,-0.0670498,-4.05321,-2.94232,2.52319,-0.4,0.3,0,9270,46.5,30.006,13952.8
508311699,0.634767,2.223,92.665,-0.286567,0.342558,0.881716,-0.918548,1.45133,-0.0712571,-3.97689,-2.74921,2.10269,-0.4,0.3,0,9270,46.5,30.006,13952.8
508412084,0.634767,2.223,92.6435,-0.230468,0.273438,0.899677,-0.915258,0.983375,-0.0672831,-3.26825,-2.35142,1.61655,-0.4,0.3,0,9270,46.5,30.006,13952.8
508512422,0.634767,2.223,92.634,-0.174507,0.193967,0.916786,-0.917607,0.619543,-0.0504479,-2.46463,-1.67845,1.16805,-0.4,0.3,0,9270,46.5,30.006,13952.8
508613764,0.634767,2.223,92.6259,-0.135637,0.129843,0.927313,-0.912018,0.358928,-0.0171344,-1.70659,-1.28595,0.592535,-5,2.5,0,9270,46.5,30.006,13952.8
508714594,0.634767,2.223,92.594,-0.0880396,0.104122,0.936111,-0.906805,0.168512,-0.0101203,-1.01377,-0.904014,0.356764,-5,2.5,0,9270,46.431,31.62,14681.5
508816684,0.634767,2.223,92.5884,0.0225337,0.215751,0.9465,-0.94009,0.0148628,0.0364012,-1.31088,-0.168133,0.521799,-5,2.5,0,9270,46.431,31.62,14681.5
508921002,0.634767,2.223,92.5821,0.112747,0.310624,0.960039,-1.16257,-0.173404,0.00649965,-2.58162,0.970162,0.248581,-5,2.5,0,9270,46.431,31.62,14681.5
509021395,0.634766,2.223,92.5968,0.170857,0.372728,0.972153,-1.50139,-0.386976,-0.0192351,-3.16229,1.57269,1.51263,-5,2.5,0,9270,46.431,31.62,14681.5
509121768,0.634766,2.223,92.6064,0.194049,0.401567,0.977175,-1.92878,-0.619521,-0.00473463,-3.61972,1.9815,1.89209,-5,2.5,0,9270,46.431,31.62,14681.5
509222120,0.634766,2.223,92.6027,0.198357,0.410998,0.977018,-2.37688,-0.860325,-0.00370463,-3.80382,2.0159,2.06463,-5,2.5,0,9270,46.431,31.62,14681.5
509323690,0.634766,2.223,92.6076,0.190222,0.410337,0.974429,-2.82888,-1.10161,-0.0068945,-3.83716,1.99154,2.0895,-5,2.5,0,9270,46.431,31.62,14681.5
509429373,0.634766,2.223,92.6057,0.174939,0.403267,0.970517,-3.3597,-1.38663,0.00122208,-3.71525,1.86908,2.07209,-5,2.5,0,9270,46.431,31.62,14681.5
509529780,0.634766,2.223,92.6228,0.153641,0.387935,0.965873,-3.77915,-1.61656,0.00741748,-3.52815,1.69049,1.90231,-5,2.5,0,9270,46.431,31.62,14681.5
509630204,0.634766,2.223,92.6205,0.122923,0.341124,0.957237,-4.15309,-1.8288,0.0146982,-3.28596,1.46328,1.49029,1.1,2,0,9270,46.431,31.62,14681.5
509730561,0.634766,2.223,92.6485,0.0894406,0.267524,0.949569,-4.46674,-2.01512,0.0298756,-2.8508,1.15632,1.00999,1.1,2,0,9270,46.394,32.506,15080.8
509830925,0.634766,2.223,92.6635,0.0449473,-0.0142307,0.941766,-4.67459,-2.12838,0.0823201,-1.39813,0.762548,0.848138,1.1,2,0,9270,46.394,32.506,15080.8
509931279,0.634766,2.223,92.6929,0.00356049,-0.279543,0.940624,-4.64218,-1.97533,0.0969448,2.18646,0.353192,-0.357405,1.1,2,0,9270,46.394,32.506,15080.8
510031687,0.634766,2.223,92.7132,-0.027989,-0.421527,0.944863,-4.45248,-1.67926,0.0127403,3.83445,-0.0054458,0.70757,1.1,2,0,9270,46.394,32.506,15080.8
510132046,0.634766,2.223,92.7509,-0.0476889,-0.485796,0.948574,-4.16003,-1.29372,-0.0234747,4.54266,-0.255294,2.20933,1.1,2,0,9270,46.394,32.506,15080.8
510232389,0.634766,2.223,92.826,-0.0602767,-0.508555,0.950887,-3.8087,-0.880872,-0.0463022,4.99312,-0.395292,2.15688,1.1,2,0,9270,46.394,32.506,15080.8
510332776,0.634766,2.223,92.8665,-0.0655583,-0.504215,0.949589,-3.44611,-0.450952,-0.0657869,4.90764,-0.375535,2.48182,1.1,2,0,9270,46.394,32.506,15080.8
510433157,0.634766,2.223,92.8882,-0.0622674,-0.493458,0.948869,-3.08426,-0.0377369,-0.0808921,5.01449,-0.480868,2.03531,1.1,2,0,9270,46.394,32.506,15080.8
510533495,0.634765,2.223,92.8865,-0.0573786,-0.475644,0.948254,-2.72577,0.372704,-0.106776,4.78691,-0.435964,2.12513,1.1,2,0,9270,46.394,32.506,15080.8
510633908,0.634765,2.223,92.8887,-0.0452888,-0.416293,0.945199,-2.3841,0.77473,-0.110872,4.63858,-0.309229,1.80506,2.6,-4,0,9270,46.394,32.506,15080.8
510734233,0.634765,2.223,92.8435,-0.0610602,-0.333249,0.948386,-2.10664,1.12026,-0.115675,3.73839,-0.0679566,1.48798,2.6,-4,0,9270,46.394,32.506,15080.8
510834583,0.634765,2.223,92.7931,-0.193251,-0.243261,0.969302,-1.84944,1.3717,-0.0836484,2.84001,-0.662363,1.45518,2.6,-4,0,9270,46.394,32.506,15080.8
510934883,0.634765,2.223,92.7401,-0.311358,-0.168591,0.969335,-1.5171,1.43124,-0.104438,1.98046,-2.27776,0.721497,2.6,-4,0,9270,46.394,32.506,15080.8
511035239,0.634765,2.223,92.709,-0.380715,-0.131281,0.963211,-1.14634,1.36534,-0.131716,1.20197,-3.01162,1.72314,2.6,-4,0,9270,46.394,32.506,15080.8
511135581,0.634765,2.223,92.6691,-0.413121,-0.112212,0.955585,-0.728726,1.23783,-0.122197,1.06735,-3.6447,1.94533,2.6,-4,0,9270,46.394,32.506,15080.8
511235948,0.634765,2.223,92.6285,-0.420678,-0.106778,0.952327,-0.290603,1.06566,-0.0996296,0.922146,-3.73724,2.37254,2.6,-4,0,9270,46.394,32.506,15080.8
511336348,0.634765,2.223,92.5917,-0.413391,-0.107396,0.950611,0.131333,0.887066,-0.0907692,0.830641,-3.71842,1.98534,2.6,-4,0,9270,46.394,32.506,15080.8
511436707,0.634765,2.223,92.5621,-0.401488,-0.112347,0.950903,0.542712,0.705213,-0.0593208,0.822249,-3.56713,2.29474,2.6,-4,0,9270,46.394,32.506,15080.8
511537069,0.634765,2.223,92.5451,-0.388553,-0.119709,0.953039,0.936566,0.547545,-0.0294741,0.947404,-3.34532,1.95344,2.6,-4,0,9270,46.394,32.506,15080.8
511637454,0.634766,2.223,92.5368,-0.379827,-0.126973,0.955487,1.32065,0.395435,-0.00105325,1.03539,-3.39888,1.59191,2.8,-3.4,0,9270,46.394,32.506,15080.8
511737807,0.634766,2.223,92.5409,-0.361117,-0.148011,0.960483,1.69106,0.263262,0.0188424,1.05946,-3.10506,1.67992,2.8,-3.4,0,9270,46.394,32.506,15080.8
511838176,0.634766,2.223,92.5466,-0.332605,-0.18556,0.965383,2.04644,0.165757,0.0475968,1.45728,-2.83883,1.17868,2.8,-3.4,0,9239,46.488,31.009,14415.5
511938552,0.634766,2.223,92.5589,-0.313685,-0.206085,0.968143,2.37335,0.121171,0.0411047,1.5886,-2.38723,1.11843,2.8,-3.4,0,9239,46.488,31.009,14415.5
512038922,0.634766,2.223,92.5539,-0.291306,-0.212005,0.969016,2.70112,0.0920466,0.0429388,1.76779,-2.37629,0.957319,2.8,-3.4,0,9239,46.488,31.009,14415.5
512139219,0.634766,2.223,92.5798,-0.256739,-0.198095,0.965438,2.99981,0.0868899,0.0594962,1.81378,-2.05903,0.817044,2.8,-3.4,0,9239,46.488,31.009,14415.5
512239627,0.634766,2.223,92.5986,-0.22248,-0.179788,0.959972,3.24652,0.100723,0.05741,1.67874,-1.60758,0.657483,2.8,-3.4,0,9239,46.488,31.009,14415.5
512339968,0.634766,2.223,92.6112,-0.192094,-0.158544,0.955386,3.4513,0.104871,0.0538459,1.33716,-1.37272,0.609721,2.8,-3.4,0,9239,46.488,31.009,14415.5
512440405,0.634766,2.223,92.6288,-0.169491,-0.138816,0.951511,3.60564,0.113567,0.0533866,1.16518,-1.03058,0.00195602,2.8,-3.4,0,9239,46.488,31.009,14415.5
512540724,0.634766,2.223,92.6296,-0.150823,-0.124264,0.948455,3.72198,0.113537,0.0368325,0.876767,-0.843316,0.146158,2.8,-3.4,0,9239,46.488,31.009,14415.5
512641123,0.634766,2.223,92.6336,-0.137101,-0.113107,0.945854,3.8253,0.117867,0.0305231,0.769542,-0.790781,0.158034,4.9,1.5,0,9239,46.488,31.009,14415.5
512741422,0.634766,2.223,92.6228,-0.114992,-0.103301,0.940949,3.89287,0.127471,0.0126328,0.673694,-0.474002,0.0206013,4.9,1.5,0,9239,46.488,31.009,14415.5
512841796,0.634766,2.223,92.6185,0.0737263,-0.128191,0.924715,3.95351,0.14238,0.0670345,0.530565,-0.149509,0.879293,4.9,1.5,0,9239,46.488,31.517,14651.6
512942238,0.634766,2.223,92.6414,0.265343,-0.156179,0.913449,3.81719,0.332404,0.0773681,0.986959,2.42995,0.0986146,4.9,1.5,0,9239,46.488,31.517,14651.6
513042625,0.634766,2.223,92.6474,0.370886,-0.175327,0.910078,3.56569,0.634433,-0.00526628,1.1237,3.79592,0.86839,4.9,1.5,0,9239,46.488,31.517,14651.6
513143007,0.634766,2.223,92.6273,0.409283,-0.190054,0.910809,3.25059,1.02138,-0.039728,1.19394,4.12998,2.60528,4.9,1.5,0,9239,46.488,31.517,14651.6
513243374,0.634766,2.223,92.6272,0.410657,-0.202044,0.912447,2.9191,1.45701,-0.0427494,1.5476,4.52985,2.20939,4.9,1.5,0,9239,46.488,31.517,14651.6
513343734,0.634766,2.223,92.6403,0.384353,-0.217889,0.915796,2.59845,1.87086,-0.0618106,1.5141,4.43542,1.98789,4.9,1.5,0,9239,46.488,31.517,14651.6
513444106,0.634766,2.223,92.6539,0.349611,-0.236875,0.914413,2.30938,2.28184,-0.0577628,1.63936,4.12467,1.82744,4.9,1.5,0,9239,46.488,31.517,14651.6
513544463,0.634766,2.223,92.661,0.316521,-0.256857,0.912616,2.07358,2.677,-0.0514244,1.69266,3.5869,1.91783,4.9,1.5,0,9239,46.488,31.517,14651.6
513644869,0.634766,2.223,92.6799,0.270848,-0.266566,0.914201,1.87535,3.0658,-0.0519488,1.94679,3.36091,1.3137,4.2,0.2,0,9239,46.488,31.517,14651.6
513745190,0.634766,2.223,92.694,0.195971,-0.251293,0.922106,1.73034,3.41643,-0.0412857,1.81818,2.62502,1.38531,4.2,0.2,0,9239,46.488,31.517,14651.6
513845459,0.634766,2.223,92.6978,0.0420871,-0.19375,0.942319,1.63977,3.70592,-0.00651301,1.64991,1.78277,0.88857,4.2,0.2,0,9239,46.488,31.517,14651.6
513945667,0.634766,2.223,92.6928,-0.082304,-0.136438,0.947043,1.65583,3.82796,0.0135197,0.977548,0.198782,0.0402552,4.2,0.2,0,9239,46.488,31.517,14651.6
514045905,0.634766,2.223,92.6584,-0.153028,-0.104412,0.945311,1.73942,3.83526,-0.0182873,0.563182,-0.889599,0.16255,4.2,0.2,0,9239,46.488,31.517,14651.6
514146142,0.634766,2.223,92.6453,-0.172468,-0.0870789,0.94128,1.8708,3.7764,0.00568759,0.188802,-1.32095,0.489629,4.2,0.2,0,9239,46.488,31.517,14651.6
514246541,0.634767,2.223,92.6294,-0.159489,-0.0786574,0.940151,1.97669,3.71007,0.000769069,0.0880367,-1.36236,0.058217,4.2,0.2,0,9239,46.488,31.517,14651.6
514346916,0.634767,2.223,92.6003,-0.133925,-0.0747057,0.938585,2.0709,3.64984,0.00148,0.0525815,-1.12101,0.273772,4.2,0.2,0,9239,46.381,32.777,15202.3
514447277,0.634767,2.223,92.5767,-0.108838,-0.0746275,0.937656,2.13869,3.59897,0.0152245,0.0230082,-0.829112,0.33441,4.2,0.2,0,9239,46.381,32.777,15202.3
514547657,0.634767,2.223,92.5612,-0.0859514,-0.0746253,0.937976,2.19429,3.57157,0.0275697,0.122624,-0.500392,0.250284,4.2,0.2,0,9239,46.381,32.777,15202.3
514648143,0.634767,2.223,92.543,-0.0723032,-0.0746527,0.937579,2.23247,3.54906,0.02087,0.0935679,-0.343182,0.109782,-0.8,0.9,0,9239,46.381,32.777,15202.3
514748526,0.634767,2.223,92.526,-0.0560872,-0.0560868,0.937967,2.26409,3.5293,0.0361342,0.0404885,-0.238344,0.381836,-0.8,0.9,0,9239,46.381,32.777,15202.3
514848897,0.634767,2.223,92.5317,-0.00963681,0.14069,0.938379,2.24861,3.47454,0.084839,-0.895935,0.0355125,0.607966,-0.8,0.9,0,9239,46.381,32.777,15202.3
514949302,0.634767,2.223,92.5544,0.0231678,0.306418,0.943864,2.03373,3.23682,0.0929628,-3.21047,0.49848,0.33795,-0.8,0.9,0,9239,46.381,32.777,15202.3
515049679,0.634767,2.223,92.5405,0.0465078,0.410892,0.950831,1.73929,2.92244,0.025176,-4.17087,0.678643,1.31786,-0.8,0.9,0,9239,46.381,32.777,15202.3
515150064,0.634767,2.223,92.5328,0.065596,0.462287,0.956267,1.35843,2.5402,0.0012845,-4.74141,0.902082,2.16554,-0.8,0.9,0,9239,46.381,32.777,15202.3
515250493,0.634767,2.223,92.5091,0.0775394,0.488755,0.958386,0.940978,2.14653,-0.0355357,-5.02625,1.05699,2.25269,-0.8,0.9,0,9239,46.381,32.777,15202.3
515350848,0.634767,2.223,92.4943,0.0757159,0.489991,0.957599,0.502576,1.73476,-0.0645544,-4.93226,1.05878,2.80539,-0.8,0.9,0,9226,46.494,28.384,13196.9
515451296,0.634767,2.223,92.5034,0.0501048,0.453753,0.952919,0.0591418,1.3057,-0.0408055,-4.9613,0.94804,3.11453,-0.8,0.9,0,9226,46.494,28.384,13196.9
515551647,0.634767,2.223,92.5403,0.0246475,0.373899,0.946778,-0.317081,0.925221,-0.00885827,-4.40303,0.738113,2.18425,-0.8,0.9,0,9226,46.494,28.384,13196.9
515652107,0.634767,2.223,92.5575,0.00629184,0.282513,0.943045,-0.608935,0.619403,0.00437701,-3.55982,0.504125,1.04411,-1.2,-4.6,0,9226,46.494,28.384,13196.9
515752516,0.634767,2.223,92.5839,-0.0285446,0.19049,0.939833,-0.816291,0.395675,0.0290124,-2.56588,0.302904,0.425584,-1.2,-4.6,0,9226,46.494,28.384,13196.9
515852969,0.634767,2.223,92.6015,-0.174904,0.102865,0.926823,-0.938763,0.227885,0.078778,-1.66353,-0.32602,-0.124612,-1.2,-4.6,0,9226,46.494,28.384,13196.9
515953773,0.634767,2.223,92.5964,-0.324871,0.0444792,0.931029,-0.853622,0.0422914,0.0404674,-0.667233,-2.1208,0.23174,-1.2,-4.6,0,9226,46.494,28.384,13196.9
516054953,0.634767,2.223,92.621,-0.417348,0.0170568,0.939252,-0.620314,-0.191916,0.0119144,-0.262885,-3.24148,0.995188,-1.2,-4.6,0,9226,46.494,28.384,13196.9
516155362,0.634767,2.223,92.6458,-0.455545,0.0100638,0.94432,-0.313925,-0.450243,0.00210857,-0.117727,-3.92706,1.22461,-1.2,-4.6,0,9226,46.494,28.384,13196.9
516263933,0.634767,2.223,92.6777,-0.464022,0.013186,0.946446,0.0253732,-0.725513,0.0117917,-0.14697,-3.90339,1.80308,-1.2,-4.6,0,9226,46.494,28.384,13196.9
516367193,0.634767,2.223,92.6863,-0.454974,0.0198951,0.945736,0.366369,-1.00553,0.0212732,-0.181524,-3.96346,1.75206,-1.2,-4.6,0,9226,46.574,28.028,13053.8
516470399,0.634767,2.223,92.6706,-0.441099,0.0294985,0.942911,0.741398,-1.33012,0.00918387,-0.35244,-3.76278,1.54632,-1.2,-4.6,0,9226,46.574,28.028,13053.8
516570762,0.634767,2.223,92.659,-0.429164,0.0367667,0.941203,1.0418,-1.60291,-0.00547701,-0.42409,-3.68004,1.42343,-1.2,-4.6,0,9226,46.574,28.028,13053.8
516671171,0.634767,2.223,92.6608,-0.417549,0.0410114,0.939775,1.32766,-1.85369,-0.0109384,-0.363862,-3.31307,1.60606,0.5,-4.7,0,9226,46.574,28.028,13053.8
516771523,0.634767,2.223,92.6624,-0.404339,0.026254,0.942576,1.59611,-2.10832,-0.0109124,-0.571654,-3.17776,1.49866,0.5,-4.7,0,9226,46.574,28.028,13053.8
516871840,0.634767,2.223,92.6662,-0.386639,-0.0624032,0.949739,1.87573,-2.32758,-0.0132772,0.00526429,-3.15476,1.21673,0.5,-4.7,0,9226,46.574,28.028,13053.8
516972222,0.634767,2.223,92.6594,-0.363954,-0.157052,0.968249,2.18623,-2.43218,-0.0288451,0.986189,-2.67935,1.28434,0.5,-4.7,0,9226,46.574,28.028,13053.8
517072684,0.634767,2.223,92.6515,-0.341107,-0.200268,0.977783,2.5362,-2.44993,-0.0239655,1.82127,-2.60342,1.03532,0.5,-4.7,0,9226,46.574,28.028,13053.8
517173037,0.634767,2.223,92.6532,-0.300542,-0.204806,0.978311,2.86512,-2.41967,-0.0428215,2.00192,-2.10548,1.22043,0.5,-4.7,0,9226,46.574,28.028,13053.8
517273382,0.634767,2.223,92.6581,-0.264304,-0.177648,0.972765,3.16744,-2.37089,-0.0277045,1.8994,-1.92616,1.1396,0.5,-4.7,0,9226,46.574,28.028,13053.8
517373743,0.634767,2.223,92.6499,-0.230629,-0.141464,0.965036,3.39752,-2.33013,-0.0147397,1.57044,-1.55318,0.409141,0.5,-4.7,0,9226,46.574,28.028,13053.8
517474087,0.634767,2.223,92.6599,-0.206304,-0.109162,0.957828,3.58002,-2.30437,-0.00589797,1.17951,-1.19776,0.506827,0.5,-4.7,0,9226,46.557,28.987,13495.5
517574435,0.634767,2.223,92.6688,-0.186291,-0.0857018,0.9529,3.72925,-2.29443,-0.00183632,0.875829,-1.06572,0.148916,0.5,-4.7,0,9226,46.557,28.987,13495.5
517674878,0.634767,2.223,92.6772,-0.166426,-0.0664843,0.948273,3.83257,-2.28718,-0.0222275,0.583384,-0.739546,0.192138,1.4,3.7,0,9226,46.557,28.987,13495.5
517775243,0.634767,2.223,92.7096,-0.109872,-0.0554088,0.941215,3.9183,-2.27575,-0.0149159,0.510773,-0.621054,0.662822,1.4,3.7,0,9226,46.557,28.987,13495.5
517875605,0.634767,2.223,92.7256,0.141571,-0.0590261,0.93059,3.95427,-2.22996,0.0480159,0.480957,0.345947,0.500026,1.4,3.7,0,9226,46.557,28.987,13495.5
517975955,0.634767,2.223,92.7714,0.335606,-0.0588011,0.926675,3.7225,-1.99552,0.054169,0.499777,3.41217,0.282562,1.4,3.7,0,9226,46.557,28.987,13495.5
518076354,0.634768,2.223,92.7627,0.441704,-0.0484948,0.929781,3.36905,-1.68064,-0.02413,0.402521,4.36873,1.74793,1.4,3.7,0,9226,46.557,28.987,13495.5
518176724,0.634768,2.223,92.7115,0.489936,-0.0389557,0.932086,2.91254,-1.30605,-0.0516041,0.247387,5.23768,2.31894,1.4,3.7,0,9226,46.557,28.987,13495.5
518277070,0.634768,2.223,92.6766,0.516614,-0.0258645,0.936553,2.42141,-0.908985,-0.0897962,0.249239,5.40818,2.85877,1.4,3.7,0,9226,46.557,28.987,13495.5
518377406,0.634768,2.223,92.6636,0.52693,-0.0185498,0.939042,1.90538,-0.516988,-0.136388,0.0472864,5.41312,3.19291,1.4,3.7,0,9226,46.557,28.987,13495.5
518477750,0.634768,2.223,92.6356,0.518822,-0.0152144,0.942566,1.36478,-0.126461,-0.158802,0.00606059,5.72148,3.00424,1.4,3.7,0,9195,46.442,30.616,14218.7
518578069,0.634768,2.223,92.57,0.506104,-0.0255652,0.941005,0.817204,0.277865,-0.154027,0.05866,5.65629,3.1409,1.4,3.7,0,9195,46.442,30.616,14218.7
518678480,0.634768,2.223,92.5355,0.46519,-0.0479831,0.93426,0.294213,0.667465,-0.128794,0.0606702,5.17135,3.48498,-1.7,1.4,0,9195,46.442,30.616,14218.7
518778827,0.634768,2.223,92.5064,0.420979,-0.0574988,0.930897,-0.1667,1.05779,-0.0726225,0.34884,4.68761,3.23852,-1.7,1.4,0,9195,46.442,30.616,14218.7
518879183,0.634768,2.223,92.4975,0.285193,0.100613,0.949613,-0.589912,1.42691,0.0362899,0.41457,4.33985,3.02982,-1.7,1.4,0,9195,46.442,30.616,14218.7
518979535,0.634768,2.223,92.4888,0.0797164,0.290042,0.941965,-0.963271,1.46058,0.132303,-2.03913,2.40347,1.27687,-1.7,1.4,0,9195,46.442,30.616,14218.7
519079868,0.634768,2.223,92.5061,-0.0693377,0.378554,0.923266,-1.23323,1.21583,0.0989738,-3.56339,0.29921,0.550483,-1.7,1.4,0,9195,46.442,30.616,14218.7
519180280,0.634768,2.223,92.5198,-0.135458,0.3765,0.919791,-1.42933,0.857625,0.050449,-3.87118,-0.760419,1.20374,-1.7,1.4,0,9195,46.442,30.616,14218.7
519280721,0.634767,2.223,92.5245,-0.140503,0.325518,0.928725,-1.58231,0.469516,0.0643962,-3.66724,-1.05646,1.39617,-1.7,1.4,0,9195,46.442,30.616,14218.7
519382350,0.634767,2.223,92.5595,-0.116765,0.255627,0.937849,-1.69325,0.154584,0.0799258,-2.97179,-1.01437,0.657436,-1.7,1.4,0,9195,46.442,30.616,14218.7
519488817,0.634767,2.223,92.5743,-0.0874035,0.192549,0.942588,-1.78296,-0.128405,0.10533,-2.10006,-0.742096,0.525133,-1.7,1.4,0,9195,46.521,28.443,13232
519589161,0.634767,2.223,92.5864,-0.0612832,0.145382,0.943654,-1.84069,-0.293546,0.0883277,-1.52517,-0.465,-0.0751479,-1.7,1.4,0,9195,46.521,28.443,13232
519689598,0.634767,2.223,92.5909,-0.0427,0.107179,0.942976,-1.89146,-0.403014,0.0717779,-1.03436,-0.191825,-0.0962541,4.5,-1.2,0,9195,46.521,28.443,13232
519789966,0.634767,2.223,92.577,-0.037947,0.0599084,0.939046,-1.93481,-0.489211,0.0738416,-0.808655,-0.00746776,0.0334844,4.5,-1.2,0,9195,46.521,28.443,13232
519890329,0.634767,2.223,92.5753,-0.106965,-0.159104,0.945491,-1.91472,-0.523491,0.0972455,0.383695,-0.349091,0.00481138,4.5,-1.2,0,9195,46.521,28.443,13232
519990677,0.634767,2.223,92.5765,-0.167515,-0.318768,0.964284,-1.6857,-0.392622,0.0494444,2.71805,-0.977271,0.205728,4.5,-1.2,0,9195,46.521,28.443,13232
520091045,0.634767,2.223,92.5616,-0.207767,-0.407654,0.979202,-1.34039,-0.198692,-0.0105648,3.61885,-1.4459,1.25202,4.5,-1.2,0,9195,46.521,28.443,13232
520191368,0.634767,2.223,92.5585,-0.2262,-0.446921,0.98697,-0.894591,0.0441613,-0.00900262,4.05119,-1.66427,2.41433,4.5,-1.2,0,9195,46.521,28.443,13232
520291786,0.634767,2.223,92.5834,-0.222726,-0.44952,0.985947,-0.422568,0.318854,-0.0025249,4.23502,-1.58737,2.77528,4.5,-1.2,0,9195,46.521,28.443,13232
520392222,0.634767,2.223,92.5707,-0.2128,-0.43807,0.982859,0.0256333,0.587595,0.00171493,4.12421,-1.52479,2.38603,4.5,-1.2,0,9195,46.521,28.443,13232
520492606,0.634767,2.223,92.5437,-0.208803,-0.423824,0.979937,0.45073,0.857236,0.00607722,4.12485,-1.47268,2.06368,4.5,-1.2,0,9182,46.492,30.933,14381.4
520593019,0.634767,2.223,92.5516,-0.201703,-0.41141,0.977525,0.855958,1.10814,0.00566673,3.8458,-1.39443,1.99014,4.5,-1.2,0,9182,46.492,30.933,14381.4
520693462,0.634767,2.223,92.5472,-0.195888,-0.398426,0.974738,1.25494,1.3488,0.0185431,3.64086,-1.33571,2.17576,2.4,3.5,0,9182,46.492,30.933,14381.4
520793825,0.634767,2.223,92.5505,-0.167988,-0.376174,0.96635,1.62902,1.57555,0.0282192,3.54522,-1.40256,1.62999,2.4,3.5,0,9182,46.492,30.933,14381.4
520894213,0.634767,2.223,92.5291,0.0323247,-0.254733,0.916993,1.96346,1.81095,0.087576,3.11931,-0.794305,1.86506,2.4,3.5,0,9182,46.492,30.933,14381.4
520994572,0.634767,2.223,92.5169,0.255268,-0.0822587,0.915039,1.95185,2.03893,0.131594,1.28257,1.97083,0.337188,2.4,3.5,0,9182,46.492,30.933,14381.4
521094925,0.634767,2.223,92.5129,0.379663,0.0157212,0.938798,1.67053,2.24039,0.0572772,-0.24609,3.73886,0.600863,2.4,3.5,0,9182,46.492,30.933,14381.4
521195263,0.634767,2.223,92.5036,0.439242,0.0631233,0.957292,1.24636,2.44031,0.0171065,-0.98146,4.26033,2.17333,2.4,3.5,0,9182,46.492,30.933,14381.4
521295604,0.634768,2.223,92.4929,0.447694,0.0728079,0.966213,0.757395,2.63454,-0.0122365,-1.22615,4.57206,2.34014,2.4,3.5,0,9182,46.492,30.933,14381.4
521395919,0.634768,2.223,92.4885,0.424674,0.0649065,0.968536,0.2651,2.83198,-0.00580721,-1.22592,4.63329,2.45356,2.4,3.5,0,9182,46.492,30.933,14381.4
521496310,0.634768,2.223,92.4973,0.365206,0.0440664,0.963715,-0.195693,3.00108,0.00457977,-1.15833,4.16622,1.9863,2.4,3.5,0,9138,46.44,30.088,13972.9
521596660,0.634768,2.223,92.4912,0.296516,0.0176201,0.954813,-0.583881,3.16011,0.0300329,-0.846378,3.652,1.43218,2.4,3.5,0,9138,46.44,30.088,13972.9
521697080,0.634768,2.223,92.5063,0.22799,-0.0140722,0.945636,-0.885215,3.29445,0.0384995,-0.529106,2.95118,0.907907,-0.6,1.6,0,9138,46.44,30.088,13972.9
521797453,0.634767,2.223,92.5144,0.162277,-0.0243514,0.938776,-1.09967,3.39481,0.0533781,-0.254433,2.10881,0.399933,-0.6,1.6,0,9138,46.44,30.088,13972.9
521897807,0.634767,2.223,92.5059,0.00740351,0.139027,0.934611,-1.26532,3.49108,0.0762464,-0.229991,1.60116,0.491643,-0.6,1.6,0,9138,46.44,30.088,13972.9
521998153,0.634767,2.223,92.5324,-0.141153,0.283519,0.913936,-1.39484,3.26275,0.116186,-2.49989,-0.615662,0.612679,-0.6,1.6,0,9138,46.44,30.088,13972.9
522098506,0.634767,2.223,92.5632,-0.225015,0.364112,0.895656,-1.48673,2.8757,0.0660361,-3.46204,-1.67856,0.881867,-0.6,1.6,0,9138,46.44,30.088,13972.9
522198874,0.634767,2.223,92.6009,-0.245415,0.376077,0.893199,-1.57217,2.39699,0.0174361,-3.99303,-2.05613,1.65339,-0.6,1.6,0,9138,46.44,30.088,13972.9
522299210,0.634767,2.223,92.6376,-0.218793,0.335956,0.904552,-1.64027,1.89706,0.0160179,-3.81663,-2.08565,1.96861,-0.6,1.6,0,9138,46.44,30.088,13972.9
522399507,0.634767,2.223,92.6655,-0.169327,0.267604,0.918699,-1.70053,1.48432,0.00456932,-3.24785,-1.73341,0.907021,-0.6,1.6,0,9138,46.44,30.088,13972.9
522499836,0.634767,2.223,92.7242,-0.130665,0.197941,0.928486,-1.75037,1.1761,0.00184461,-2.43339,-1.2741,0.513535,-0.6,1.6,0,9138,46.44,30.088,13972.9
522600202,0.634767,2.223,92.7531,-0.0959555,0.1354,0.935261,-1.78782,0.943615,-0.00110345,-1.827,-0.869357,0.262798,-0.6,1.6,0,9138,46.349,31.475,14588.3
522700625,0.634767,2.223,92.7466,-0.0732139,0.0855852,0.938046,-1.81532,0.777744,-0.0145614,-1.22848,-0.566807,0.00473607,-3.8,-1.1,0,9138,46.349,31.475,14588.3
522800981,0.634767,2.223,92.7222,-0.0673467,0.0622538,0.936798,-1.82554,0.662608,-0.0236813,-0.740035,-0.45032,-0.0186463,-3.8,-1.1,0,9138,46.349,31.475,14588.3
522901357,0.634767,2.223,92.7314,-0.137409,0.135033,0.929532,-1.82743,0.559519,-0.0205814,-0.83449,-0.610811,-0.101516,-3.8,-1.1,0,9138,46.349,31.475,14588.3
523001709,0.634767,2.223,92.7096,-0.219188,0.212905,0.915847,-1.81342,0.321456,-0.0517621,-1.74043,-1.41287,0.4416,-3.8,-1.1,0,9138,46.349,31.475,14588.3
523102124,0.634767,2.223,92.6566,-0.273862,0.266531,0.903966,-1.78618,-0.0266047,-0.073081,-2.41339,-2.06992,1.07167,-3.8,-1.1,0,9138,46.349,31.475,14588.3
523202478,0.634767,2.223,92.6379,-0.300462,0.294862,0.89816,-1.74213,-0.44709,-0.0589675,-2.69115,-2.29975,1.92392,-3.8,-1.1,0,9138,46.349,31.475,14588.3
523303456,0.634767,2.223,92.6283,-0.308247,0.304797,0.896509,-1.69643,-0.897332,-0.0533955,-2.98855,-2.6116,1.74353,-3.8,-1.1,0,9138,46.349,31.475,14588.3
523406562,0.634767,2.223,92.5988,-0.303866,0.304099,0.897179,-1.65955,-1.33663,-0.0328041,-2.86558,-2.45394,2.06215,-3.8,-1.1,0,9138,46.349,31.475,14588.3
523510932,0.634767,2.223,92.5999,-0.2961,0.304107,0.897378,-1.61331,-1.84961,-0.0314657,-2.79694,-2.35454,1.93507,-3.8,-1.1,0,9138,46.349,31.475,14588.3
523611296,0.634767,2.223,92.6039,-0.277737,0.29053,0.900762,-1.57953,-2.2722,-0.0201666,-2.79171,-2.39714,1.76823,-3.8,-1.1,0,9138,46.398,30.174,14000.1
523711707,0.634767,2.223,92.6166,-0.238453,0.253122,0.910632,-1.55778,-2.65296,0.00594748,-2.50463,-2.0603,1.54419,-3.2,-2.2,0,9138,46.398,30.174,14000.1
523812031,0.634767,2.223,92.6086,-0.206355,0.197351,0.918959,-1.55011,-2.94302,0.0191611,-2.04511,-1.46816,1.11904,-3.2,-2.2,0,9138,46.398,30.174,14000.1
523912331,0.634767,2.223,92.6204,-0.23734,0.107214,0.920488,-1.50347,-3.16626,0.0523397,-1.21753,-1.6342,0.662054,-3.2,-2.2,0,9138,46.398,30.174,14000.1
524012657,0.634767,2.223,92.6398,-0.269746,0.0497781,0.928347,-1.37982,-3.32836,0.0223356,-0.44479,-1.91838,0.309141,-3.2,-2.2,0,9138,46.398,30.174,14000.1
524113021,0.634767,2.223,92.6699,-0.284707,0.0159839,0.935795,-1.20257,-3.47582,0.0101982,-0.0567967,-2.17591,0.629394,-3.2,-2.2,0,9138,46.398,30.174,14000.1
524213369,0.634767,2.223,92.7008,-0.270995,0.00498291,0.941433,-1.00386,-3.59505,0.0128576,0.27425,-2.27008,0.176362,-3.2,-2.2,0,9138,46.398,30.174,14000.1
524313723,0.634767,2.223,92.7133,-0.242098,0.00742863,0.94254,-0.826037,-3.68583,0.00351818,0.291188,-1.91388,0.200846,-3.2,-2.2,0,9138,46.398,30.174,14000.1
524414094,0.634767,2.223,92.7149,-0.209631,0.0135759,0.942143,-0.675962,-3.76135,0.0111439,0.231395,-1.66413,0.162757,-3.2,-2.2,0,9138,46.398,30.174,14000.1
524514437,0.634767,2.223,92.719,-0.179998,0.0211107,0.940369,-0.563319,-3.81914,-0.0029732,0.164495,-1.17079,0.233192,-3.2,-2.2,0,9138,46.398,30.174,14000.1
524614766,0.634767,2.223,92.7393,-0.158265,0.0269522,0.939141,-0.48054,-3.86328,-0.0090607,0.0877882,-0.924102,0.156305,-3.2,-2.2,0,9138,46.487,28.924,13445.9
524715091,0.634767,2.223,92.7612,-0.137711,0.0327088,0.937828,-0.424648,-3.88744,-0.0137791,0.0513217,-0.60209,0.129745,3,-0.5,0,9138,46.487,28.924,13445.9
524815442,0.634767,2.223,92.7597,-0.108731,0.00617052,0.93938,-0.380361,-3.92261,-0.0212132,-0.13408,-0.594035,0.237508,3,-0.5,0,9138,46.487,28.924,13445.9
524915790,0.634767,2.223,92.7588,-0.0154434,-0.196391,0.937174,-0.331655,-3.87519,0.038427,0.980315,-0.00723376,0.244976,3,-0.5,0,9138,46.487,28.924,13445.9
525016117,0.634767,2.223,92.7477,0.0553929,-0.349672,0.927685,-0.232073,-3.59691,-0.0190664,3.04605,0.861609,-0.234629,3,-0.5,0,9138,46.487,28.924,13445.9
525116439,0.634767,2.223,92.7293,0.0965842,-0.440383,0.918619,-0.107556,-3.17082,-0.0998349,4.06057,1.43781,1.28936,3,-0.5,0,9138,46.487,28.924,13445.9
525216835,0.634767,2.223,92.7247,0.11694,-0.479608,0.916502,0.0487584,-2.65268,-0.130316,4.44203,1.57217,2.44105,3,-0.5,0,9138,46.487,28.924,13445.9
525317116,0.634767,2.223,92.6997,0.129964,-0.481698,0.919753,0.207325,-2.08941,-0.138921,4.65941,1.73537,2.75173,3,-0.5,0,9138,46.487,28.924,13445.9
525417449,0.634767,2.223,92.674,0.118815,-0.469969,0.92379,0.352974,-1.51292,-0.121998,4.60379,1.78195,2.96297,3,-0.5,0,9138,46.487,28.924,13445.9
525517801,0.634767,2.223,92.6491,0.100462,-0.458844,0.927502,0.490881,-0.979997,-0.144979,4.34936,1.70729,2.4641,3,-0.5,0,9138,46.487,28.924,13445.9
525618165,0.634767,2.223,92.6376,0.0615515,-0.44695,0.934565,0.655593,-0.453313,-0.100941,4.27524,1.41388,3.01658,3,-0.5,0,9138,46.409,29.892,13872.6
525722716,0.634767,2.223,92.6652,0.0273697,-0.429558,0.939552,0.845537,0.0214598,-0.0635624,4.31158,1.02411,1.79741,4.8,0.6,0,9138,46.409,29.892,13872.6
525824439,0.634767,2.223,92.7011,0.00350649,-0.40142,0.942048,1.03707,0.456681,-0.0482639,4.00018,0.820871,2.0284,4.8,0.6,0,9138,46.409,29.892,13872.6
525924813,0.634767,2.223,92.7353,0.0473199,-0.379612,0.930163,1.21443,0.829706,-0.0172025,3.48411,0.793505,1.48798,4.8,0.6,0,9138,46.409,29.892,13872.6
526025173,0.634767,2.223,92.7457,0.0688535,-0.37505,0.923798,1.33755,1.21085,-0.0220393,3.42387,1.06186,1.05484,4.8,0.6,0,9138,46.409,29.892,13872.6
526125526,0.634767,2.223,92.7603,0.0787181,-0.366563,0.922799,1.44352,1.58533,-0.0374454,3.2357,1.20634,1.33176,4.8,0.6,0,9138,46.409,29.892,13872.6
526225870,0.634767,2.223,92.7628,0.0756066,-0.361213,0.922397,1.53009,1.96226,-0.0386623,3.08911,1.3446,1.28667,4.8,0.6,0,9138,46.409,29.892,13872.6
526326210,0.634767,2.223,92.7567,0.0613562,-0.350989,0.925544,1.63162,2.30134,-0.0425067,2.97588,1.07453,1.09027,4.8,0.6,0,9138,46.409,29.892,13872.6
526426576,0.634767,2.223,92.7346,0.0399835,-0.319589,0.930335,1.73207,2.61093,-0.0547438,2.70899,0.967686,1.09419,4.8,0.6,0,9138,46.409,29.892,13872.6
526526928,0.634767,2.223,92.7275,0.0217707,-0.286228,0.932801,1.84152,2.87521,-0.0491635,2.50604,0.715414,0.77874,4.8,0.6,0,9138,46.409,29.892,13872.6
526627335,0.634767,2.223,92.7439,0.00739181,-0.251788,0.932701,1.94829,3.12893,-0.0551739,2.05088,0.473109,0.414278,4.8,0.6,0,9138,46.549,27.654,12872.7
526727738,0.634767,2.223,92.7202,0.00182184,-0.221385,0.932757,2.01055,3.26633,-0.0624535,1.73003,0.435792,0.528585,-2.9,-0.8,0,9138,46.549,27.654,12872.7
526828102,0.634767,2.223,92.7262,-0.00576758,-0.176027,0.93324,2.06896,3.40528,-0.0433116,1.38586,0.374265,0.385801,-2.9,-0.8,0,9138,46.549,27.654,12872.7
526928498,0.634767,2.223,92.7401,-0.0425456,0.0700688,0.93461,2.1007,3.51813,-0.00063872,0.363682,0.366763,0.234426,-2.9,-0.8,0,9138,46.549,27.654,12872.7
527028851,0.634767,2.223,92.7584,-0.0863771,0.303985,0.924922,1.94952,3.27318,-0.00628521,-2.98494,-0.21105,0.478688,-2.9,-0.8,0,9138,46.549,27.654,12872.7
527129136,0.634767,2.223,92.7448,-0.115843,0.433418,0.913067,1.7407,2.86646,-0.0715032,-4.39305,-0.641418,1.26152,-2.9,-0.8,0,9138,46.549,27.654,12872.7
527230652,0.634767,2.223,92.7346,-0.129194,0.499323,0.905983,1.46933,2.34191,-0.0860929,-5.23813,-0.734447,2.42465,-2.9,-0.8,0,9138,46.549,27.654,12872.7
527332656,0.634767,2.223,92.7131,-0.129104,0.521012,0.901614,1.17654,1.78705,-0.119077,-5.29121,-0.67342,2.71188,-2.9,-0.8,0,9138,46.549,27.654,12872.7
527433065,0.634767,2.223,92.7012,-0.127132,0.518975,0.901114,0.872034,1.21197,-0.12483,-5.20375,-0.669381,3.46296,-2.9,-0.8,0,9138,46.549,27.654,12872.7
527533461,0.634767,2.223,92.7154,-0.126933,0.504247,0.902969,0.557617,0.642055,-0.110666,-5.13157,-0.529554,3.49185,-2.9,-0.8,0,9138,46.549,27.654,12872.7
527633835,0.634767,2.223,92.7353,-0.122363,0.480676,0.905815,0.272306,0.088377,-0.0899169,-5.06306,-0.691808,2.66158,-2.9,-0.8,0,9108,46.463,27.181,12629.1
527734265,0.634767,2.223,92.7334,-0.121724,0.451949,0.908208,-0.00498736,-0.421341,-0.089322,-4.7088,-0.526349,2.38453,2.2,-3.1,0,9108,46.463,27.181,12629.1
527834653,0.634767,2.223,92.7454,-0.140275,0.390744,0.908899,-0.256603,-0.889931,-0.0872163,-4.33159,-0.413581,2.18665,2.2,-3.1,0,9108,46.463,27.181,12629.1
527935016,0.634767,2.223,92.7607,-0.202242,0.131225,0.913959,-0.421973,-1.31368,-0.0322119,-3.29011,-0.897497,1.42624,2.2,-3.1,0,9108,46.463,27.181,12629.1
528035373,0.634767,2.223,92.7811,-0.253813,-0.157636,0.954374,-0.327097,-1.47317,-0.011584,0.0949246,-1.43325,0.939993,2.2,-3.1,0,9108,46.463,27.181,12629.1
528135787,0.634767,2.223,92.7909,-0.286329,-0.319875,0.987436,-0.0401056,-1.44395,-0.0687661,2.53155,-2.20115,0.244502,2.2,-3.1,0,9108,46.463,27.181,12629.1
528236175,0.634767,2.223,92.79,-0.298298,-0.388502,1.0035,0.348604,-1.31304,-0.0933396,3.53337,-2.16207,1.68271,2.2,-3.1,0,9108,46.463,27.181,12629.1
528336527,0.634767,2.223,92.8082,-0.295565,-0.40403,1.00865,0.776454,-1.12949,-0.0909744,3.82837,-1.96684,2.34274,2.2,-3.1,0,9108,46.463,27.181,12629.1
528436905,0.634767,2.223,92.8071,-0.2956,-0.394429,1.00739,1.21615,-0.930087,-0.0685418,3.80972,-1.97041,2.33353,2.2,-3.1,0,9108,46.463,27.181,12629.1
528537283,0.634767,2.223,92.8015,-0.29673,-0.37445,1.00415,1.64443,-0.74324,-0.0630516,3.81787,-2.08754,1.89413,2.2,-3.1,0,9108,46.463,27.181,12629.1
528637614,0.634767,2.223,92.7955,-0.300125,-0.346183,0.998532,2.05824,-0.581928,-0.0783318,3.44835,-2.2031,1.76399,2.2,-3.1,0,9108,46.463,27.181,12629.1
528738011,0.634767,2.223,92.7813,-0.273116,-0.29387,0.984904,2.45928,-0.443122,-0.0657835,3.01657,-2.08271,1.90635,2.3,-2.1,0,9108,46.465,29.154,13546.4
528838324,0.634767,2.223,92.7593,-0.228591,-0.239143,0.968823,2.78428,-0.330804,-0.0500939,2.48483,-1.73447,1.05223,2.3,-2.1,0,9108,46.465,29.154,13546.4
528938672,0.634767,2.223,92.7405,-0.121411,-0.194756,0.946975,3.04084,-0.245626,-0.0413872,1.8647,-1.17262,0.929843,2.3,-2.1,0,9108,46.465,29.154,13546.4
529039047,0.634767,2.223,92.7229,-0.0410229,-0.162469,0.938294,3.15692,-0.125495,-0.0379323,1.50313,-0.0800747,0.0893726,2.3,-2.1,0,9108,46.465,29.154,13546.4
529139364,0.634768,2.223,92.7178,0.00182575,-0.136727,0.936149,3.19712,0.0114177,-0.0558748,1.13582,0.575313,0.165473,2.3,-2.1,0,9108,46.465,29.154,13546.4
529239683,0.634768,2.223,92.7047,0.0149085,-0.111785,0.936663,3.20898,0.148576,-0.0538088,0.963652,0.772475,0.374956,2.3,-2.1,0,9108,46.465,29.154,13546.4
529340060,0.634768,2.223,92.7132,0.0100016,-0.0871848,0.938104,3.18488,0.264348,-0.0547404,0.681089,0.900984,-0.0411185,2.3,-2.1,0,9108,46.465,29.154,13546.4
529440461,0.634768,2.223,92.7108,-0.00466064,-0.0693926,0.93772,3.15241,0.343067,-0.0595095,0.37361,0.687808,0.0814122,2.3,-2.1,0,9108,46.465,29.154,13546.4
529540771,0.634768,2.223,92.7228,-0.0202593,-0.0602097,0.938467,3.13078,0.403577,-0.0583865,0.324882,0.510935,-0.324172,2.3,-2.1,0,9108,46.465,29.154,13546.4
529641086,0.634768,2.223,92.7144,-0.0310359,-0.0557718,0.938095,3.09637,0.447311,-0.0662253,0.149615,0.483096,-0.0195914,2.3,-2.1,0,9108,46.465,29.154,13546.4
529741500,0.634768,2.223,92.715,-0.0387564,-0.0532215,0.938635,3.0731,0.479101,-0.0695769,0.104519,0.335958,0.204262,-2.8,-3.6,0,9108,46.435,30.509,14166.9
529841874,0.634768,2.223,92.7062,-0.0531892,-0.0400517,0.938082,3.05646,0.509724,-0.0516859,0.208337,0.274881,0.0893929,-2.8,-3.6,0,9108,46.435,30.509,14166.9
529942232,0.634768,2.223,92.7152,-0.0794457,0.121754,0.934524,3.04249,0.509815,-0.00787657,-0.240791,0.0641902,0.413013,-2.8,-3.6,0,9108,46.435,30.509,14166.9
530042577,0.634768,2.223,92.7248,-0.113879,0.280109,0.922098,2.92572,0.328046,-0.0283263,-2.33148,-0.231096,0.0218962,-2.8,-3.6,0,9108,46.435,30.509,14166.9
530142932,0.634768,2.223,92.7176,-0.138868,0.372828,0.908557,2.74241,0.00921501,-0.0655007,-3.36468,-0.436187,1.27136,-2.8,-3.6,0,9108,46.435,30.509,14166.9
530243307,0.634768,2.223,92.7039,-0.156008,0.413731,0.8995,2.53262,-0.399373,-0.0743141,-3.97825,-0.647999,1.78401,-2.8,-3.6,0,9108,46.435,30.509,14166.9
530343636,0.634768,2.223,92.7191,-0.164426,0.419677,0.894804,2.31684,-0.847365,-0.080839,-4.32723,-0.795254,1.97448,-2.8,-3.6,0,9108,46.435,30.509,14166.9
530443984,0.634768,2.223,92.716,-0.168014,0.407369,0.89331,2.08919,-1.2956,-0.0833087,-4.13235,-0.6035,2.27069,-2.8,-3.6,0,9108,46.435,30.509,14166.9
530544372,0.634768,2.223,92.7298,-0.178975,0.386366,0.894566,1.88064,-1.7185,-0.0798994,-3.85309,-0.71139,2.07167,-2.8,-3.6,0,9108,46.435,30.509,14166.9
530644736,0.634768,2.223,92.7454,-0.19245,0.363342,0.896894,1.70044,-2.12214,-0.0726589,-3.49464,-0.714111,2.0311,-2.8,-3.6,0,9108,46.435,30.509,14166.9
530745185,0.634768,2.223,92.7484,-0.209911,0.336464,0.899252,1.55378,-2.52031,-0.0780485,-3.52787,-1.04672,1.36805,-1.2,2.6,0,9108,46.312,32.432,15019.9
530845570,0.634768,2.223,92.7423,-0.201112,0.284268,0.908258,1.4391,-2.90482,-0.0802493,-3.17916,-1.1694,1.64609,-1.2,2.6,0,9108,46.312,32.432,15019.9
530945919,0.634768,2.223,92.7651,-0.017575,0.156117,0.947971,1.36311,-3.25115,0.0352739,-2.39773,-1.125,1.92715,-1.2,2.6,0,9108,46.312,32.432,15019.9
531046277,0.634768,2.223,92.8152,0.243003,0.0113241,0.950397,1.188,-3.28307,0.0872481,-0.668844,1.58552,0.254132,-1.2,2.6,0,9108,46.312,32.432,15019.9
531146661,0.634768,2.223,92.8252,0.384487,-0.0627637,0.928416,0.902928,-3.04742,-0.00224227,0.58305,3.88443,0.278149,-1.2,2.6,0,9108,46.312,32.432,15019.9
531246970,0.634768,2.223,92.8297,0.444802,-0.0933257,0.911247,0.563073,-2.69828,-0.0724301,0.976798,4.55483,1.75106,-1.2,2.6,0,9108,46.312,32.432,15019.9
531347315,0.634768,2.223,92.8262,0.472621,-0.101561,0.903354,0.10829,-2.21263,-0.110798,1.1198,5.15413,1.86742,-1.2,2.6,0,9108,46.312,32.432,15019.9
531447593,0.634768,2.223,92.818,0.48054,-0.0914757,0.90479,-0.196393,-1.872,-0.152791,1.11173,4.93369,2.4544,-1.2,2.6,0,9108,46.312,32.432,15019.9
531547879,0.634768,2.223,92.8152,0.474394,-0.0756992,0.908791,-0.693893,-1.35934,-0.171248,0.843537,4.97576,2.98527,-1.2,2.6,0,9108,46.312,32.432,15019.9
531648278,0.634768,2.223,92.8024,0.462193,-0.0578985,0.91368,-1.10856,-0.943764,-0.160667,0.759528,4.95539,2.26804,-1.2,2.6,0,9108,46.312,32.432,15019.9
531748644,0.634768,2.223,92.7637,0.415889,-0.0394349,0.920835,-1.51564,-0.555916,-0.163894,0.541816,4.67517,2.54174,3.5,-4.1,0,9093,46.513,26.909,12516.2
531850002,0.634768,2.223,92.7443,0.313328,-0.031844,0.925813,-1.87312,-0.226973,-0.126154,0.394253,4.0336,1.85019,3.5,-4.1,0,9093,46.513,26.909,12516.2
531952265,0.634768,2.223,92.7114,0.0328726,-0.121963,0.939756,-2.12028,0.0307423,-0.0382271,0.500194,2.66837,1.32115,3.5,-4.1,0,9093,46.513,26.909,12516.2
532052675,0.634768,2.223,92.7056,-0.233742,-0.210535,0.967103,-2.00638,0.165196,-0.0289347,1.76056,-0.802355,0.146432,3.5,-4.1,0,9093,46.513,26.909,12516.2
532153083,0.634768,2.223,92.6886,-0.382145,-0.254471,0.988138,-1.65746,0.223249,-0.0824432,2.22418,-2.58824,1.5201,3.5,-4.1,0,9093,46.513,26.909,12516.2
532253483,0.634768,2.223,92.6683,-0.444206,-0.274721,0.997544,-1.16021,0.238038,-0.0907812,2.46061,-3.52838,2.78684,3.5,-4.1,0,9093,46.513,26.909,12516.2
532353877,0.634768,2.223,92.6588,-0.452818,-0.281269,0.998135,-0.609733,0.242917,-0.0619916,2.71028,-3.90629,2.83483,3.5,-4.1,0,9093,46.513,26.909,12516.2
532454278,0.634768,2.223,92.6562,-0.440891,-0.279352,0.995119,-0.0587879,0.250184,-0.0294327,2.73911,-3.81403,2.74651,3.5,-4.1,0,9093,46.513,26.909,12516.2
532556099,0.634768,2.223,92.6664,-0.423285,-0.273856,0.991177,0.465385,0.253324,-0.00582042,2.61893,-3.66147,2.48647,3.5,-4.1,0,9093,46.513,26.909,12516.2
532660059,0.634768,2.223,92.653,-0.403808,-0.267419,0.987843,0.964413,0.258632,-0.00941176,2.43073,-3.26269,2.57157,3.5,-4.1,0,9093,46.513,26.909,12516.2
532760454,0.634768,2.223,92.6451,-0.385105,-0.261085,0.984727,1.45231,0.260038,0.0123932,2.26473,-3.06913,2.61798,2.9,-0.2,0,9093,46.429,29.791,13831.7
532860833,0.634768,2.223,92.6159,-0.354542,-0.255077,0.977694,1.89686,0.267722,0.0183091,2.12535,-2.81552,2.13147,2.9,-0.2,0,9093,46.429,29.791,13831.7
532961183,0.634768,2.223,92.5884,-0.151935,-0.267788,0.939514,2.33104,0.280244,0.0643854,2.20223,-2.56349,1.88775,2.9,-0.2,0,9093,46.429,29.791,13831.7
533061556,0.634768,2.223,92.5823,0.0929737,-0.253624,0.911532,2.52444,0.46227,0.0923784,2.3771,0.228159,0.60634,2.9,-0.2,0,9093,46.429,29.791,13831.7
533161928,0.634768,2.223,92.5585,0.211975,-0.2175,0.91089,2.5033,0.744706,0.0358854,2.00001,2.23659,0.381799,2.9,-0.2,0,9093,46.429,29.791,13831.7
533262239,0.634768,2.223,92.5353,0.240315,-0.181952,0.919052,2.39061,1.04592,-0.00190111,1.61953,2.90891,0.853246,2.9,-0.2,0,9093,46.429,29.791,13831.7
533362607,0.634768,2.223,92.5168,0.214012,-0.149506,0.929148,2.2481,1.3315,-0.00421597,1.34988,2.9292,0.545339,2.9,-0.2,0,9093,46.429,29.791,13831.7
533462973,0.634768,2.223,92.525,0.166194,-0.121989,0.935307,2.11558,1.5468,-0.00180009,0.926913,2.37222,0.680711,2.9,-0.2,0,9093,46.429,29.791,13831.7
533563277,0.634768,2.223,92.5362,0.115356,-0.102987,0.939375,2.0135,1.71422,0.0225271,0.726914,1.84537,0.350565,2.9,-0.2,0,9093,46.429,29.791,13831.7
533663610,0.634768,2.223,92.5512,0.0760572,-0.0920515,0.939651,1.92393,1.83298,0.0149712,0.406224,1.38404,0.315524,2.9,-0.2,0,9093,46.429,29.791,13831.7
533764120,0.634768,2.223,92.5494,0.0450069,-0.0852955,0.939401,1.85825,1.92108,0.0246956,0.373617,1.09319,0.149109,-3.8,-3.9,0,9093,46.429,29.791,13831.7
533864472,0.634768,2.223,92.5583,0.0151157,-0.0701464,0.938583,1.80265,1.99852,0.0217237,0.324102,0.772308,0.00662458,-3.8,-3.9,0,9093,46.429,29.791,13831.7
533964823,0.634768,2.223,92.573,-0.080639,0.105836,0.934567,1.76535,2.0442,0.0602813,-0.0429319,0.394603,0.739304,-3.8,-3.9,0,9093,46.429,29.791,13831.7
534065200,0.634769,2.223,92.5923,-0.176913,0.272506,0.912808,1.6765,1.8253,0.0684117,-2.37623,-0.888114,0.0631917,-3.8,-3.9,0,9093,46.429,29.791,13831.7
534165530,0.634769,2.223,92.6024,-0.239812,0.368533,0.890839,1.57787,1.44977,-0.00249998,-3.52365,-1.50637,1.1072,-3.8,-3.9,0,9093,46.429,29.791,13831.7
534265893,0.634769,2.223,92.6021,-0.271117,0.411582,0.877869,1.46472,0.952381,-0.0247142,-4.11822,-1.85836,2.24954,-3.8,-3.9,0,9093,46.429,29.791,13831.7
534366231,0.634769,2.223,92.5841,-0.273328,0.418521,0.875617,1.35002,0.405902,-0.0249299,-4.20695,-1.92087,2.91636,-3.8,-3.9,0,9093,46.429,29.791,13831.7
534466572,0.634769,2.223,92.5885,-0.265904,0.408539,0.876972,1.22276,-0.129868,-0.0165921,-4.34015,-1.86475,2.52031,-3.8,-3.9,0,9093,46.429,29.791,13831.7
534566898,0.634769,2.223,92.5777,-0.25863,0.388586,0.881484,1.10126,-0.645808,-0.0190009,-4.21987,-1.82666,2.1753,-3.8,-3.9,0,9093,46.429,29.791,13831.7
534667253,0.634769,2.223,92.5894,-0.253844,0.365907,0.886696,0.989131,-1.12496,-0.0314184,-3.78345,-1.65277,2.18403,-3.8,-3.9,0,9093,46.429,29.791,13831.7
534768104,0.634769,2.223,92.5951,-0.253431,0.341471,0.892392,0.881854,-1.67985,-0.00832081,-3.53311,-1.7067,1.90545,-2.2,-2.8,0,9093,46.429,29.791,13831.7
534868473,0.634769,2.223,92.6167,-0.245061,0.307146,0.90055,0.811935,-2.11251,0.0103525,-3.28125,-1.78531,1.69184,-2.2,-2.8,0,9063,46.337,32.772,15185.6
534968797,0.634769,2.223,92.6174,-0.210783,0.229273,0.914071,0.765198,-2.47998,0.0346838,-2.61387,-1.54827,0.943181,-2.2,-2.8,0,9063,46.337,32.772,15185.6
535069185,0.634769,2.223,92.6333,-0.179459,0.150749,0.925921,0.739335,-2.73404,0.0394963,-1.79205,-1.19399,0.518702,-2.2,-2.8,0,9063,46.337,32.772,15185.6
535169538,0.634769,2.223,92.6348,-0.150271,0.0848843,0.935051,0.737758,-2.90397,0.0302321,-1.00279,-0.960157,-0.107383,-2.2,-2.8,0,9063,46.337,32.772,15185.6
535269912,0.634769,2.223,92.6456,-0.132142,0.0464852,0.938716,0.751538,-3.01055,0.0215673,-0.511654,-0.727332,-0.247429,-2.2,-2.8,0,9063,46.337,32.772,15185.6
535370268,0.634769,2.223,92.6477,-0.119763,0.0244845,0.941477,0.764666,-3.07825,0.0206563,-0.230167,-0.468087,0.0349246,-2.2,-2.8,0,9063,46.337,32.772,15185.6
535470625,0.634769,2.223,92.6585,-0.108795,0.0135222,0.940646,0.774742,-3.11962,0.0212975,-0.0751706,-0.329017,0.0784264,-2.2,-2.8,0,9063,46.337,32.772,15185.6
535570956,0.634769,2.223,92.6597,-0.1012,0.0103976,0.940775,0.792066,-3.13836,0.023093,0.0432992,-0.276547,-0.0649121,-2.2,-2.8,0,9063,46.337,32.772,15185.6
535671298,0.634769,2.223,92.6516,-0.0964041,0.0124259,0.940241,0.811353,-3.15074,0.0115774,0.112087,-0.253714,0.000138694,-2.2,-2.8,0,9063,46.337,32.772,15185.6
535771776,0.634769,2.223,92.6379,-0.0931618,0.0176286,0.940026,0.821017,-3.1551,0.010476,0.0400713,-0.22623,0.0644429,-3.5,0.2,0,9063,46.337,32.772,15185.6
535872149,0.634769,2.223,92.6321,-0.069415,0.0269097,0.937931,0.831637,-3.16645,0.0206164,-0.00652751,-0.336237,0.398942,-3.5,0.2,0,9049,46.337,31.813,14741.2
535972550,0.634769,2.223,92.6417,0.121462,0.102341,0.947615,0.774278,-3.15921,0.0717764,-0.404531,0.742974,0.133387,-3.5,0.2,0,9049,46.337,31.813,14741.2
536072841,0.634769,2.223,92.67,0.258592,0.154921,0.959068,0.499323,-3.07902,0.0199404,-1.09553,2.71441,0.0793329,-3.5,0.2,0,9049,46.337,31.813,14741.2
536173174,0.634769,2.223,92.6556,0.355048,0.200038,0.969218,0.103936,-2.95902,-0.0545675,-1.42024,3.68762,1.34198,-3.5,0.2,0,9049,46.337,31.813,14741.2
536274315,0.634769,2.223,92.639,0.368614,0.210468,0.965544,-0.404479,-2.83259,-0.0688726,-1.93951,4.37595,1.6594,-3.5,0.2,0,9049,46.337,31.813,14741.2
536374687,0.634769,2.223,92.6321,0.316911,0.192292,0.952868,-0.894993,-2.7181,-0.0696973,-1.81446,3.89854,2.19015,-3.5,0.2,0,9049,46.337,31.813,14741.2
536475147,0.634769,2.223,92.5859,0.237983,0.161763,0.941664,-1.31237,-2.61514,-0.0624449,-1.60239,3.41317,1.35787,-3.5,0.2,0,9049,46.337,31.813,14741.2
536575500,0.634769,2.223,92.5646,0.162271,0.137879,0.93594,-1.63515,-2.53022,-0.0505681,-1.1358,2.58609,1.12995,-3.5,0.2,0,9049,46.337,31.813,14741.2
536675868,0.634769,2.223,92.5858,0.0932833,0.121702,0.934472,-1.87203,-2.46983,-0.0342995,-0.851979,1.83257,0.746658,-3.5,0.2,0,9049,46.337,31.813,14741.2
536776307,0.634769,2.223,92.5898,0.0410769,0.110727,0.934747,-2.03859,-2.44595,-0.00734349,-0.726325,1.12759,0.286913,-4.4,2.5,0,9049,46.337,31.813,14741.2
536876620,0.634769,2.223,92.5951,0.0160919,0.103902,0.934607,-2.15971,-2.44502,-0.00353771,-0.648661,0.69313,0.198993,-4.4,2.5,0,9049,46.337,31.813,14741.2
536976981,0.634768,2.223,92.6058,0.108302,0.126658,0.946286,-2.25828,-2.45866,0.0273921,-0.678022,0.641536,-0.117773,-4.4,2.5,0,9049,46.337,31.813,14741.2
537077340,0.634768,2.223,92.6184,0.226181,0.161909,0.959237,-2.47508,-2.41471,-0.0090568,-0.993184,1.9207,0.0878797,-4.4,2.5,0,9049,46.337,31.813,14741.2
537177660,0.634768,2.223,92.5963,0.302371,0.190196,0.967469,-2.79983,-2.33654,-0.0309313,-1.24408,2.80328,0.837936,-4.4,2.5,0,9049,46.337,31.813,14741.2
537278010,0.634768,2.223,92.5946,0.311706,0.195249,0.96643,-3.2063,-2.24582,-0.0477877,-1.51929,3.38127,1.55132,-4.4,2.5,0,9049,46.337,31.813,14741.2
537378367,0.634768,2.223,92.585,0.269554,0.177038,0.957541,-3.60017,-2.16028,-0.011755,-1.46117,3.21384,1.32162,-4.4,2.5,0,9019,46.384,29.654,13754.7
537478681,0.634768,2.223,92.5891,0.210125,0.156635,0.950234,-3.9212,-2.08417,0.00203286,-1.18164,2.68857,1.02832,-4.4,2.5,0,9019,46.384,29.654,13754.7
537579033,0.634768,2.223,92.5777,0.148663,0.137576,0.946875,-4.1631,-2.03991,0.00912932,-0.991981,1.90175,0.732241,-4.4,2.5,0,9019,46.384,29.654,13754.7
537679399,0.634768,2.223,92.5824,0.0996789,0.120719,0.945106,-4.35047,-2.01767,0.024586,-0.862604,1.42693,0.620809,-4.4,2.5,0,9019,46.384,29.654,13754.7
537779812,0.634768,2.223,92.5848,0.0610458,0.109208,0.9455,-4.48582,-2.00706,0.030596,-0.663793,0.972107,0.220835,3.4,1.8,0,9019,46.384,29.654,13754.7
537880573,0.634768,2.223,92.596,0.0324726,0.0867325,0.943929,-4.58636,-2.00834,0.027705,-0.587712,0.616003,-0.123815,3.4,1.8,0,9019,46.384,29.654,13754.7
537980954,0.634768,2.223,92.5868,-0.013362,-0.118465,0.94432,-4.64623,-1.99807,0.056498,-0.0678641,0.343262,0.806034,3.4,1.8,0,9019,46.384,29.654,13754.7
538081295,0.634768,2.223,92.6208,-0.0475715,-0.311098,0.947949,-4.49661,-1.80509,0.0850221,2.74371,-0.185267,0.0309159,3.4,1.8,0,9019,46.384,29.654,13754.7
538181585,0.634768,2.223,92.6471,-0.0685197,-0.421097,0.950819,-4.24392,-1.51037,0.0193566,3.97247,-0.376024,0.797646,3.4,1.8,0,9019,46.384,29.654,13754.7
538281945,0.634768,2.223,92.6455,-0.0766769,-0.479392,0.951398,-3.9127,-1.13447,-0.0294798,4.64326,-0.334191,2.01404,3.4,1.8,0,9019,46.384,29.654,13754.7
538382300,0.634768,2.223,92.6586,-0.0730686,-0.503353,0.949407,-3.53877,-0.716693,-0.0412208,4.95768,-0.363934,2.47248,3.4,1.8,0,9005,46.469,26.886,12493.7
538482656,0.634768,2.223,92.6849,-0.0684823,-0.503024,0.946511,-3.14683,-0.278586,-0.0595981,5.16163,-0.428068,2.61013,3.4,1.8,0,9005,46.469,26.886,12493.7
538583009,0.634767,2.223,92.7016,-0.0630197,-0.484072,0.94332,-2.75312,0.152097,-0.0792101,5.09348,-0.452935,2.58298,3.4,1.8,0,9005,46.469,26.886,12493.7
538683375,0.634767,2.223,92.6869,-0.0542247,-0.460319,0.942183,-2.3667,0.558814,-0.065264,4.62336,-0.519263,2.80885,3.4,1.8,0,9005,46.469,26.886,12493.7
538783773,0.634767,2.223,92.6609,-0.0412898,-0.437491,0.941741,-2.0161,0.955813,-0.0521841,4.46577,-0.290711,2.32017,-3.6,1.8,0,9005,46.469,26.886,12493.7
538884129,0.634767,2.223,92.6389,-0.0279053,-0.403422,0.939782,-1.691,1.33009,-0.0359194,4.12754,-0.204436,2.22284,-3.6,1.8,0,9005,46.469,26.886,12493.7
538984489,0.634767,2.223,92.6172,-0.0141444,-0.172696,0.939758,-1.40676,1.68261,-0.0191141,3.74546,-0.0427815,1.89814,-3.6,1.8,0,9005,46.469,26.886,12493.7
539084880,0.634767,2.223,92.5673,-0.0106307,0.177716,0.939055,-1.32892,1.77701,0.0185693,0.520854,0.0712569,0.395757,-3.6,1.8,0,9005,46.469,26.886,12493.7
539185234,0.634767,2.223,92.5504,-0.00781427,0.386796,0.938604,-1.47951,1.55457,-0.0077491,-2.89589,0.0821013,0.704686,-3.6,1.8,0,9005,46.469,26.886,12493.7
539285584,0.634767,2.223,92.5226,-0.00769112,0.487884,0.939558,-1.74383,1.20127,-0.042631,-4.14243,0.111391,2.09655,-3.6,1.8,0,9005,46.469,26.886,12493.7
539385914,0.634767,2.223,92.4842,-0.0090777,0.525247,0.939937,-2.07518,0.744662,-0.0466903,-4.89069,0.106099,3.0372,-3.6,1.8,0,9005,46.469,26.886,12493.7
539486256,0.634767,2.223,92.4442,-0.00987251,0.524555,0.939112,-2.50325,0.162077,-0.0190298,-4.8606,0.154526,3.43,-3.6,1.8,0,9005,46.472,27.409,12737.5
539586607,0.634767,2.223,92.4217,-0.0139851,0.498576,0.93823,-2.84728,-0.319651,0.00762144,-4.86709,0.0463664,2.98459,-3.6,1.8,0,9005,46.472,27.409,12737.5
539686948,0.634767,2.223,92.4107,-0.0182833,0.424923,0.938616,-3.16124,-0.755512,0.052628,-4.37775,0.0311327,2.48452,-3.6,1.8,0,9005,46.472,27.409,12737.5
539787335,0.634767,2.223,92.3895,-0.0206351,0.337956,0.939154,-3.36517,-1.04469,0.0767135,-3.78973,-0.0081978,1.63579,4.7,1,0,9005,46.472,27.409,12737.5
539887683,0.634767,2.223,92.394,-0.0272519,0.226028,0.939052,-3.59228,-1.37957,0.117831,-2.59632,-0.0209351,1.14691,4.7,1,0,9005,46.472,27.409,12737.5
539988077,0.634767,2.223,92.4233,-0.0460625,-0.0485051,0.942002,-3.68493,-1.53282,0.191792,-0.892276,-0.178203,0.0067684,4.7,1,0,9005,46.472,27.409,12737.5
540088451,0.634767,2.223,92.4865,-0.0552975,-0.28221,0.947763,-3.55141,-1.41999,0.197768,2.50538,-0.399349,-0.345051,4.7,1,0,9005,46.472,27.409,12737.5
540188822,0.634767,2.223,92.5312,-0.0621571,-0.406844,0.950547,-3.34002,-1.17961,0.127422,3.73204,-0.321979,0.671257,4.7,1,0,9005,46.472,27.409,12737.5
540289193,0.634767,2.223,92.5711,-0.0696447,-0.459438,0.950525,-3.05271,-0.855952,0.106151,4.46992,-0.388455,1.45901,4.7,1,0,9005,46.472,27.409,12737.5
540389550,0.634767,2.223,92.6535,-0.0772046,-0.473626,0.952078,-2.74097,-0.518628,0.0697075,4.64739,-0.502657,1.51011,4.7,1,0,9005,46.472,27.409,12737.5
540489903,0.634767,2.223,92.7072,-0.0791345,-0.472368,0.951553,-2.40187,-0.172539,0.0450546,4.65833,-0.629904,1.85084,4.7,1,0,9005,46.425,29.289,13597.4
540590251,0.634767,2.223,92.7435,-0.0756038,-0.461644,0.950625,-2.07673,0.179746,0.0163698,4.61723,-0.526239,1.64599,4.7,1,0,9005,46.425,29.289,13597.4
540690557,0.634767,2.223,92.7613,-0.0685916,-0.445747,0.949658,-1.75368,0.524313,-0.0192622,4.37647,-0.555998,1.74359,4.7,1,0,9005,46.425,29.289,13597.4
540790897,0.634767,2.223,92.7349,-0.0612796,-0.430386,0.948392,-1.43556,0.875884,-0.0339319,4.19311,-0.460427,1.96837,-3.8,1,0,9005,46.425,29.289,13597.4
540891241,0.634767,2.223,92.718,-0.050314,-0.39015,0.947193,-1.13999,1.22476,-0.039884,4.11331,-0.273429,1.73862,-3.8,1,0,9005,46.425,29.289,13597.4
540991631,0.634767,2.223,92.683,-0.0363257,-0.130402,0.944646,-0.883629,1.53874,-0.0168097,3.3663,-0.1129,1.38206,-3.8,1,0,9005,46.425,29.289,13597.4
541091986,0.634767,2.223,92.6304,-0.0389921,0.203334,0.93679,-0.853724,1.55627,0.00614103,-0.317736,-0.125289,0.207683,-3.8,1,0,9005,46.425,29.289,13597.4
541192348,0.634767,2.223,92.5801,-0.0393979,0.390777,0.930269,-1.02555,1.30073,-0.048929,-3.08375,-0.111702,1.0199,-3.8,1,0,9005,46.425,29.289,13597.4
541293187,0.634767,2.223,92.5412,-0.0406017,0.481148,0.926418,-1.28736,0.921906,-0.0853551,-4.27078,-0.0292006,2.28318,-3.8,1,0,9005,46.425,29.289,13597.4
541394469,0.634767,2.223,92.4912,-0.0484969,0.511383,0.924034,-1.60569,0.458793,-0.0708872,-4.82795,-0.132025,3.05947,-3.8,1,0,9005,46.425,29.289,13597.4
541497402,0.634767,2.223,92.4591,-0.0552725,0.505256,0.922142,-1.93875,-0.0368128,-0.0484762,-4.95235,-0.16276,3.38072,-3.8,1,0,9005,46.294,32.708,15141.8
541597763,0.634767,2.223,92.4371,-0.064609,0.487091,0.920786,-2.24576,-0.533844,-0.0143125,-4.66142,-0.32574,3.22646,-3.8,1,0,9005,46.294,32.708,15141.8
541698117,0.634767,2.223,92.4262,-0.0672938,0.4426,0.921843,-2.52903,-0.998628,0.0209784,-4.41933,-0.400816,2.69518,-3.8,1,0,9005,46.294,32.708,15141.8
541798539,0.634766,2.223,92.43,-0.0619058,0.366487,0.926172,-2.76928,-1.42103,0.0683332,-3.75033,-0.405071,2.42601,3.2,-1.6,0,9005,46.294,32.708,15141.8
541898912,0.634766,2.223,92.4483,-0.0575589,0.273215,0.928444,-2.95349,-1.75657,0.0983312,-3.13466,-0.44192,1.04101,3.2,-1.6,0,9005,46.294,32.708,15141.8
541999259,0.634766,2.223,92.4868,-0.0981488,0.0113762,0.932437,-3.07487,-1.99339,0.157044,-1.83883,-0.436498,1.061,3.2,-1.6,0,9005,46.294,32.708,15141.8
542099614,0.634766,2.223,92.5178,-0.142642,-0.239776,0.953087,-2.96455,-1.99953,0.185173,1.49605,-1.02354,-0.46723,3.2,-1.6,0,9005,46.294,32.708,15141.8
542199949,0.634766,2.223,92.551,-0.168469,-0.366763,0.970268,-2.70873,-1.84854,0.105358,3.23504,-1.21169,0.352844,3.2,-1.6,0,9005,46.294,32.708,15141.8
542300367,0.634766,2.223,92.584,-0.182366,-0.424854,0.980216,-2.37209,-1.61723,0.057512,3.82189,-1.17717,2.04223,3.2,-1.6,0,9005,46.294,32.708,15141.8
542400669,0.634766,2.223,92.6223,-0.187571,-0.443157,0.984564,-1.98556,-1.34729,0.0551674,4.41936,-1.4057,1.69,3.2,-1.6,0,9005,46.294,32.708,15141.8
542501050,0.634766,2.223,92.6905,-0.184657,-0.438609,0.984276,-1.59671,-1.06672,0.0366029,4.44716,-1.3622,1.71193,3.2,-1.6,0,9005,46.297,31.121,14408.1
542601354,0.634766,2.223,92.7132,-0.177768,-0.423733,0.981348,-1.2192,-0.783562,0.0116589,4.26643,-1.31319,1.69393,3.2,-1.6,0,9005,46.297,31.121,14408.1
542701709,0.634766,2.223,92.7251,-0.175315,-0.406803,0.97871,-0.84317,-0.505925,-0.000368461,4.15228,-1.20519,1.63354,3.2,-1.6,0,9005,46.297,31.121,14408.1
542802109,0.634766,2.223,92.7351,-0.178172,-0.389679,0.976173,-0.482096,-0.237995,-0.0256424,3.94897,-1.16949,1.63963,1.8,-3.1,0,9005,46.297,31.121,14408.1
542902469,0.634766,2.223,92.7358,-0.190632,-0.365136,0.97346,-0.126374,0.00594074,-0.0392689,3.73829,-1.3511,1.33006,1.8,-3.1,0,9005,46.297,31.121,14408.1
543002835,0.634766,2.223,92.7023,-0.25579,-0.28398,0.980588,0.226951,0.22703,-0.0488396,3.35006,-1.53974,1.47626,1.8,-3.1,0,9005,46.297,31.121,14408.1
543103163,0.634766,2.223,92.6705,-0.319899,-0.198372,0.974607,0.59204,0.315213,-0.0503218,2.38792,-2.22201,1.50766,1.8,-3.1,0,9005,46.297,31.121,14408.1
543203522,0.634766,2.223,92.6337,-0.363343,-0.138378,0.962323,0.952766,0.286553,-0.0550354,1.54726,-2.81397,1.63799,1.8,-3.1,0,9005,46.297,31.121,14408.1
543303877,0.634766,2.223,92.5962,-0.385659,-0.107504,0.953315,1.30842,0.183196,-0.0522171,1.00088,-3.19794,1.44146,1.8,-3.1,0,9005,46.297,31.121,14408.1
543404262,0.634766,2.223,92.5193,-0.387684,-0.0956004,0.947589,1.67034,0.0409014,-0.051508,0.826561,-3.26986,1.83928,1.8,-3.1,0,9005,46.297,31.121,14408.1
543508737,0.634766,2.223,92.4969,-0.349359,-0.086109,0.942616,2.08322,-0.135811,-0.0185429,0.612189,-2.8805,2.14133,1.8,-3.1,0,8975,46.244,33.874,15664.7
543611858,0.634766,2.223,92.4675,-0.294303,-0.0790104,0.940342,2.36587,-0.269752,0.0123147,0.54339,-2.74939,0.864884,1.8,-3.1,0,8975,46.244,33.874,15664.7
543712319,0.634766,2.223,92.4438,-0.242997,-0.0738225,0.938961,2.59371,-0.371688,0.0248059,0.541083,-2.19793,0.664609,1.8,-3.1,0,8975,46.244,33.874,15664.7
543812791,0.634766,2.223,92.4315,-0.199946,-0.0705186,0.939347,2.77202,-0.450259,0.0481865,0.488298,-1.72059,0.438817,-3.1,-1,0,8975,46.244,33.874,15664.7
543913109,0.634766,2.223,92.4492,-0.147672,-0.0383986,0.940034,2.91088,-0.499742,0.0652935,0.51771,-1.19273,0.527797,-3.1,-1,0,8975,46.244,33.874,15664.7
544013487,0.634766,2.223,92.4794,-0.0100958,0.175386,0.940534,2.96468,-0.557044,0.135729,-0.325424,-0.333944,0.651754,-3.1,-1,0,8975,46.244,33.874,15664.7
544113879,0.634766,2.223,92.5001,0.110609,0.345909,0.958552,2.70775,-0.738047,0.140261,-2.96659,1.24004,0.229752,-3.1,-1,0,8975,46.244,33.874,15664.7
544214276,0.634767,2.223,92.5163,0.170501,0.42693,0.971471,2.30668,-0.958623,0.0817376,-3.87211,1.94275,1.44019,-3.1,-1,0,8975,46.244,33.874,15664.7
544314624,0.634767,2.223,92.5295,0.195698,0.455909,0.975345,1.81967,-1.22378,0.0486781,-4.34541,2.16606,2.34208,-3.1,-1,0,8975,46.244,33.874,15664.7
544414942,0.634767,2.223,92.5323,0.196346,0.458895,0.971283,1.30165,-1.47857,0.0215781,-4.49913,2.44745,2.0493,-3.1,-1,0,8975,46.244,33.874,15664.7
544515342,0.634767,2.223,92.5399,0.170387,0.445859,0.962702,0.767849,-1.74443,0.0149617,-4.31553,2.35053,2.80643,-3.1,-1,0,8975,46.275,30.399,14067.1
544615697,0.634767,2.223,92.5792,0.128681,0.416368,0.952883,0.277105,-2.00551,0.00622311,-4.12167,2.10388,2.27368,-3.1,-1,0,8975,46.275,30.399,14067.1
544716071,0.634767,2.223,92.6134,0.0784335,0.354909,0.94304,-0.145576,-2.2631,0.0197818,-3.88964,1.54274,1.48714,-3.1,-1,0,8975,46.275,30.399,14067.1
544816460,0.634767,2.223,92.6297,0.0300539,0.287966,0.937653,-0.480392,-2.46529,0.0208635,-3.0594,1.16049,0.736097,-0.1,0.7,0,8975,46.275,30.399,14067.1
544916800,0.634766,2.223,92.673,-0.000976464,0.211406,0.937976,-0.722324,-2.63625,0.0121371,-2.2694,0.66191,0.450782,-0.1,0.7,0,8975,46.275,30.399,14067.1
545017168,0.634766,2.223,92.7126,0.0709409,-0.0256341,0.942777,-0.892022,-2.76808,0.0514057,-1.38253,0.463071,0.404711,-0.1,0.7,0,8975,46.275,30.399,14067.1
545117521,0.634766,2.223,92.7517,0.157113,-0.241788,0.92336,-0.973532,-2.58849,0.069943,1.76856,1.75758,-0.412907,-0.1,0.7,0,8975,46.275,30.399,14067.1
545217871,0.634766,2.223,92.7338,0.210805,-0.351446,0.902908,-0.995292,-2.23683,-0.0377824,3.04209,2.08615,0.870972,-0.1,0.7,0,8975,46.275,30.399,14067.1
545318251,0.634766,2.223,92.7342,0.219837,-0.374902,0.896948,-0.992371,-1.76816,-0.0707944,3.7199,2.40461,1.8451,-0.1,0.7,0,8975,46.275,30.399,14067.1
545418611,0.634766,2.223,92.7637,0.195161,-0.338543,0.905516,-0.985935,-1.27548,-0.0709589,3.67787,2.44055,1.86006,-0.1,0.7,0,8975,46.275,30.399,14067.1
545518949,0.634766,2.223,92.7709,0.145338,-0.274593,0.91759,-0.970931,-0.854,-0.0516431,3.23174,2.04357,1.27729,-0.1,0.7,0,8975,46.275,30.399,14067.1
545619301,0.634766,2.223,92.7387,0.0950126,-0.206034,0.927181,-0.953354,-0.52387,-0.0438669,2.65533,1.59957,0.265993,-0.1,0.7,0,8975,46.244,31.012,14341.2
545719598,0.634766,2.223,92.7017,0.0504797,-0.150432,0.932927,-0.947462,-0.282044,-0.0706513,1.79077,1.15862,0.415746,-0.1,0.7,0,8975,46.244,31.012,14341.2
545820054,0.634766,2.223,92.6686,0.0196189,-0.110487,0.935405,-0.935301,-0.114447,-0.0496324,1.20034,0.757372,0.34183,0.4,-4.8,0,8975,46.244,31.012,14341.2
545920430,0.634766,2.223,92.6443,-0.0165623,-0.0788235,0.939625,-0.913615,0.0143725,-0.0509575,0.925498,0.421148,0.0431118,0.4,-4.8,0,8975,46.244,31.012,14341.2
546020796,0.634766,2.223,92.6076,-0.175832,-0.0554076,0.945702,-0.873366,0.0968289,-0.0220838,0.660207,-0.178334,0.39017,0.4,-4.8,0,8975,46.244,31.012,14341.2
546121187,0.634766,2.223,92.5901,-0.324526,-0.0461322,0.945964,-0.689245,0.0417495,-0.0452265,0.425047,-1.97764,0.399472,0.4,-4.8,0,8975,46.244,31.012,14341.2
546221565,0.634766,2.223,92.573,-0.419608,-0.042823,0.945052,-0.372296,-0.11422,-0.0428696,0.443819,-3.38515,1.3711,0.4,-4.8,0,8975,46.244,31.012,14341.2
546321926,0.634766,2.223,92.5592,-0.463215,-0.04132,0.944136,0.0146431,-0.325493,-0.0326,0.355591,-3.86875,2.16998,0.4,-4.8,0,8975,46.244,31.012,14341.2
546422268,0.634766,2.223,92.5432,-0.476627,-0.0410328,0.943791,0.429038,-0.560694,-0.00855591,0.360918,-3.81565,2.70366,0.4,-4.8,0,8975,46.244,31.012,14341.2
546522630,0.634766,2.223,92.5455,-0.46958,-0.0412289,0.943756,0.846875,-0.815356,0.0114622,0.280891,-4.03656,2.31698,0.4,-4.8,0,8975,46.244,31.012,14341.2
546622984,0.634766,2.223,92.5384,-0.456188,-0.0434631,0.944192,1.23835,-1.05848,0.0363489,0.266424,-3.78077,2.19602,0.4,-4.8,0,8975,46.292,30.249,14002.9
546723349,0.634766,2.223,92.5626,-0.444677,-0.0481989,0.945835,1.61227,-1.28286,0.0489428,0.385068,-3.79173,1.57931,0.4,-4.8,0,8975,46.292,30.249,14002.9
546823738,0.634766,2.223,92.5893,-0.4326,-0.051791,0.947455,1.984,-1.49783,0.0497487,0.423538,-3.7281,1.41771,-1.8,-1.2,0,8975,46.292,30.249,14002.9
546924100,0.634766,2.223,92.6124,-0.409735,-0.0481069,0.946351,2.33363,-1.69917,0.0539703,0.426043,-3.42923,1.36451,-1.8,-1.2,0,8975,46.292,30.249,14002.9
547024411,0.634766,2.223,92.6486,-0.24832,0.060378,0.937968,2.68032,-1.90794,0.118072,0.32209,-3.24275,1.62024,-1.8,-1.2,0,8975,46.292,30.249,14002.9
547124751,0.634767,2.223,92.6949,0.0415827,0.205054,0.951156,2.73866,-2.0835,0.152627,-1.21859,-0.680554,-0.0951643,-1.8,-1.2,0,8975,46.292,30.249,14002.9
547225102,0.634767,2.223,92.6817,0.245378,0.278349,0.976069,2.37855,-2.18943,0.0699589,-2.56008,2.64669,0.215213,-1.8,-1.2,0,8975,46.292,30.249,14002.9
547325460,0.634767,2.223,92.6669,0.327679,0.289768,0.983816,1.90837,-2.23352,0.00578991,-2.78929,3.47738,2.03594,-1.8,-1.2,0,8975,46.292,30.249,14002.9
547425816,0.634767,2.223,92.6373,0.324966,0.254818,0.971809,1.39554,-2.24983,-0.0232683,-2.71469,3.75748,1.90806,-1.8,-1.2,0,8975,46.292,30.249,14002.9
547526175,0.634767,2.223,92.6054,0.274895,0.203057,0.95393,1.03144,-2.23631,-0.0435807,-2.35324,3.62682,1.31223,-1.8,-1.2,0,8975,46.292,30.249,14002.9
547626527,0.634767,2.223,92.5854,0.196634,0.149103,0.941826,0.594458,-2.20583,-0.0759338,-1.63809,2.79051,0.939417,-1.8,-1.2,0,8961,46.324,30.188,13984.3
547726870,0.634767,2.223,92.5903,0.139262,0.112673,0.937476,0.316918,-2.18627,-0.0670914,-1.17097,2.14256,1.2259,-1.8,-1.2,0,8961,46.324,30.188,13984.3
547827275,0.634767,2.223,92.5919,0.0811876,0.0860968,0.936543,0.0925492,-2.16505,-0.0381171,-0.882816,1.68519,0.225084,-3.9,-4,0,8961,46.324,30.188,13984.3
547927638,0.634767,2.223,92.6199,0.0217739,0.077093,0.935258,-0.0686704,-2.15379,-0.0162813,-0.599412,1.13931,0.362606,-3.9,-4,0,8961,46.324,30.188,13984.3
548027961,0.634767,2.223,92.6542,-0.110679,0.138054,0.926364,-0.181779,-2.19545,0.0115705,-0.967912,0.175894,-0.0773667,-3.9,-4,0,8961,46.324,30.188,13984.3
548128289,0.634767,2.223,92.6688,-0.23748,0.190755,0.913496,-0.218107,-2.37817,-0.0181978,-1.57921,-1.17561,0.04298,-3.9,-4,0,8961,46.324,30.188,13984.3
548228629,0.634767,2.223,92.6963,-0.327524,0.223982,0.90154,-0.18597,-2.67068,-0.040402,-2.02622,-2.20627,0.740346,-3.9,-4,0,8961,46.324,30.188,13984.3
548329002,0.634767,2.223,92.6983,-0.366317,0.240111,0.89585,-0.104867,-3.02793,-0.035372,-2.13379,-2.67599,1.41874,-3.9,-4,0,8961,46.324,30.188,13984.3
548429344,0.634767,2.223,92.6975,-0.384277,0.24162,0.89364,-0.00322787,-3.4041,-0.0347348,-2.15345,-2.96079,1.4995,-3.9,-4,0,8961,46.324,30.188,13984.3
548529667,0.634767,2.223,92.6892,-0.381255,0.238988,0.893967,0.110271,-3.79541,-0.0393668,-2.20561,-3.01829,1.56636,-3.9,-4,0,8961,46.324,30.188,13984.3
548630008,0.634767,2.223,92.655,-0.356317,0.218745,0.901322,0.227108,-4.17766,-0.0259061,-2.04213,-2.79747,1.90165,-3.9,-4,0,8961,46.287,31.273,14475.3
548730338,0.634767,2.223,92.6613,-0.315035,0.191684,0.909725,0.330321,-4.50845,-0.0163295,-1.78521,-2.48895,1.31261,-3.9,-4,0,8961,46.287,31.273,14475.3
548830725,0.634767,2.223,92.669,-0.272285,0.162897,0.918297,0.412674,-4.78161,-0.0160169,-1.51187,-2.08262,0.992008,0.2,-1.1,0,8961,46.287,31.273,14475.3
548931067,0.634767,2.223,92.6616,-0.217119,0.112081,0.929417,0.475564,-4.99795,-0.0101096,-1.20175,-1.62509,0.924829,0.2,-1.1,0,8961,46.287,31.273,14475.3
549031415,0.634767,2.223,92.6798,-0.0504674,-0.090958,0.937964,0.544302,-5.13044,0.080125,-0.220845,-0.944493,0.855675,0.2,-1.1,0,8961,46.287,31.273,14475.3
549131773,0.634767,2.223,92.7011,0.111529,-0.271758,0.919028,0.599975,-4.91407,0.117689,2.23241,1.08042,0.452157,0.2,-1.1,0,8961,46.287,31.273,14475.3
549232121,0.634767,2.223,92.6985,0.192303,-0.360275,0.900639,0.622139,-4.51262,0.0373519,3.52816,2.3452,0.589196,0.2,-1.1,0,8961,46.287,31.273,14475.3
549332493,0.634767,2.223,92.7065,0.227486,-0.406211,0.889152,0.663507,-4.01711,0.00350367,3.89289,2.43219,2.10271,0.2,-1.1,0,8961,46.287,31.273,14475.3
549432853,0.634767,2.223,92.724,0.25194,-0.422786,0.885706,0.686545,-3.46312,-0.0433052,4.14454,2.81436,2.16626,0.2,-1.1,0,8961,46.287,31.273,14475.3
549533195,0.634767,2.223,92.6956,0.258815,-0.415849,0.888352,0.703486,-2.89157,-0.097409,4.20463,2.95782,2.23635,0.2,-1.1,0,8961,46.287,31.273,14475.3
549633505,0.634767,2.223,92.6459,0.236788,-0.366134,0.904026,0.694261,-2.30922,-0.121419,4.09233,3.0518,2.40252,0.2,-1.1,0,8961,46.319,30.092,13938.3
549733861,0.634767,2.223,92.6205,0.179881,-0.293911,0.920979,0.67318,-1.79198,-0.108333,3.47038,2.73903,1.93611,0.2,-1.1,0,8961,46.319,30.092,13938.3
549834305,0.634767,2.223,92.6119,0.110255,-0.223256,0.932837,0.656013,-1.39828,-0.0912981,2.5903,2.09586,1.57571,3.9,-2,0,8961,46.319,30.092,13938.3
549934666,0.634767,2.223,92.612,0.0442823,-0.187955,0.936796,0.657852,-1.0991,-0.0399722,1.94316,1.48082,1.19415,3.9,-2,0,8961,46.319,30.092,13938.3
550035040,0.634767,2.223,92.6034,-0.0280189,-0.249016,0.944805,0.697975,-0.870998,-0.0131642,2.01718,0.818314,0.197078,3.9,-2,0,8961,46.319,30.092,13938.3
550135396,0.634767,2.223,92.6122,-0.090419,-0.31871,0.952754,0.840265,-0.628531,-0.0374035,2.52454,0.0850791,0.839922,3.9,-2,0,8961,46.319,30.092,13938.3
550235702,0.634767,2.223,92.6233,-0.126574,-0.367305,0.958904,1.08061,-0.360989,-0.0427798,3.13863,-0.44697,1.34316,3.9,-2,0,8961,46.319,30.092,13938.3
550336086,0.634767,2.223,92.6184,-0.147588,-0.38802,0.96309,1.37421,-0.0703331,-0.0252169,3.64188,-0.718921,1.56218,3.9,-2,0,8961,46.319,30.092,13938.3
550436420,0.634767,2.223,92.6329,-0.160111,-0.391964,0.963759,1.70081,0.21289,-0.0140951,3.75329,-0.935296,1.58764,3.9,-2,0,8961,46.319,30.092,13938.3
550536766,0.634767,2.223,92.6461,-0.158285,-0.388559,0.962401,2.01841,0.470066,-0.00816131,3.54863,-0.889135,1.50215,3.9,-2,0,8961,46.319,30.092,13938.3
550637086,0.634767,2.223,92.6153,-0.156208,-0.380027,0.961964,2.33851,0.721697,0.00883665,3.37639,-0.860518,1.85677,3.9,-2,0,8961,46.319,30.092,13938.3
550737424,0.634767,2.223,92.5941,-0.149329,-0.34895,0.957606,2.64177,0.969579,0.0275335,3.41459,-0.795315,1.36793,3.9,-2,0,8931,46.343,29.527,13683.7
550837782,0.634767,2.223,92.5604,-0.132495,-0.301708,0.950758,2.90924,1.17319,0.0306508,2.91517,-0.730245,1.09274,1.2,2,0,8931,46.343,29.527,13683.7
550938073,0.634767,2.223,92.559,-0.0930848,-0.232815,0.940873,3.13141,1.33384,0.0480117,2.45255,-0.736681,0.598114,1.2,2,0,8931,46.343,29.527,13683.7
551038436,0.634767,2.223,92.5571,0.0926439,-0.0456077,0.923226,3.27568,1.45328,0.103332,1.39156,-0.0781825,0.981286,1.2,2,0,8931,46.343,29.527,13683.7
551138776,0.634767,2.223,92.5635,0.272566,0.118617,0.949019,3.07217,1.52345,0.117997,-0.867047,2.44961,0.183549,1.2,2,0,8931,46.343,29.527,13683.7
551239134,0.634767,2.223,92.5459,0.367074,0.194524,0.978085,2.66187,1.56487,0.0513703,-2.08435,3.68031,0.918511,1.2,2,0,8931,46.343,29.527,13683.7
551339498,0.634767,2.223,92.5492,0.414319,0.223006,0.995963,2.14354,1.59001,0.0121706,-2.51326,4.05463,2.26291,1.2,2,0,8931,46.343,29.527,13683.7
551439816,0.634767,2.223,92.5175,0.428092,0.225259,1.00189,1.57618,1.62741,-0.019022,-2.57721,4.41303,2.28781,1.2,2,0,8931,46.343,29.527,13683.7
551540197,0.634767,2.223,92.5008,0.413713,0.201588,0.998725,0.996342,1.66601,-0.0663527,-2.51517,4.39986,2.63143,1.2,2,0,8931,46.343,29.527,13683.7
551640504,0.634767,2.223,92.5201,0.354975,0.156722,0.984672,0.433105,1.72173,-0.046515,-2.22271,4.18081,2.64619,1.2,2,0,8931,46.343,29.527,13683.7
551740836,0.634767,2.223,92.5066,0.277831,0.102413,0.967766,-0.0292329,1.76897,-0.0295614,-1.80579,3.47975,1.68225,1.2,2,0,8917,46.283,28.924,13386.9
551841215,0.634767,2.223,92.5049,0.202268,0.049242,0.954162,-0.380548,1.83016,0.0242957,-1.16962,2.81518,1.05639,-0.2,1.8,0,8917,46.283,28.924,13386.9
551941543,0.634767,2.223,92.5006,0.133474,0.0150367,0.94463,-0.622447,1.88169,0.0418146,-0.610428,1.89463,0.546385,-0.2,1.8,0,8917,46.283,28.924,13386.9
552041889,0.634767,2.223,92.5045,0.0682653,0.0738055,0.93884,-0.785478,1.9205,0.0700316,-0.520667,1.16627,0.534165,-0.2,1.8,0,8917,46.283,28.924,13386.9
552142233,0.634767,2.223,92.5007,0.0286525,0.139426,0.938886,-0.946638,1.84725,0.0864801,-1.29879,0.609121,0.0974845,-0.2,1.8,0,8917,46.283,28.924,13386.9
552242591,0.634767,2.223,92.497,0.00676165,0.17362,0.939997,-1.11779,1.71341,0.076806,-1.85506,0.378647,0.246046,-0.2,1.8,0,8917,46.283,28.924,13386.9
552342948,0.634767,2.223,92.4806,-0.00222514,0.171054,0.942338,-1.26861,1.54785,0.0774237,-1.88685,0.0930164,0.43112,-0.2,1.8,0,8917,46.283,28.924,13386.9
552443295,0.634767,2.223,92.467,-0.00412806,0.145656,0.943424,-1.42104,1.39608,0.0880997,-1.86836,0.205718,0.0236777,-0.2,1.8,0,8917,46.283,28.924,13386.9
552543620,0.634767,2.223,92.4554,-0.00715464,0.110687,0.943356,-1.54703,1.24847,0.102216,-1.33364,-0.0419427,-0.127891,-0.2,1.8,0,8917,46.283,28.924,13386.9
552643916,0.634767,2.223,92.4226,-0.00590394,0.0774111,0.942531,-1.61274,1.17778,0.0845917,-1.07154,0.060522,-0.048146,-0.2,1.8,0,8917,46.283,28.924,13386.9
552744324,0.634767,2.223,92.3954,-0.00497634,0.0530647,0.941579,-1.68748,1.10364,0.0950021,-0.691981,0.0547469,0.556146,-0.2,1.8,0,8917,46.297,29.793,13793.3
552844715,0.634767,2.223,92.3833,-0.00241195,0.0335498,0.940409,-1.72358,1.06195,0.117878,-0.422622,0.0424101,0.237429,-0.5,-1.9,0,8917,46.297,29.793,13793.3
552945088,0.634767,2.223,92.3683,-0.0158748,0.0190552,0.94164,-1.76181,1.0452,0.111587,-0.290422,0.237402,0.145049,-0.5,-1.9,0,8917,46.297,29.793,13793.3
553045444,0.634767,2.223,92.3791,-0.172175,0.0216657,0.939438,-1.75998,1.00244,0.146112,-0.277331,-0.590605,-0.0634265,-0.5,-1.9,0,8917,46.297,29.793,13793.3
553145777,0.634767,2.223,92.3934,-0.328312,0.0232862,0.936457,-1.59749,0.828842,0.129892,-0.405619,-2.42891,0.388039,-0.5,-1.9,0,8917,46.297,29.793,13793.3
