timestamp,lat,log,alt,roll,pitch,yaw,vel_x,vel_y,vel_z,acc_x,acc_y,acc_z,act_vx,act_vy,act_yr,capacity,vol,cur,power
2672591136,0.634769,2.223,95.5719,-0.0206557,0.0143877,0.937761,-0.0082112,-0.00905031,-0.0396041,0.0347087,0.00496133,-0.143478,-3.9,-2.8,0,12813,49.734,23.476,11675.6
2672691727,0.634769,2.223,95.5786,-0.0211929,0.0143219,0.937685,-0.0160074,-0.0079357,-0.0315389,-0.00755746,0.0751283,-0.0219125,-3.9,-2.8,0,12813,49.734,23.476,11675.6
2672792146,0.634769,2.223,95.573,-0.0270382,0.0216974,0.936112,-0.0189787,-0.00863354,-0.039675,-0.0387935,0.0113963,-0.124466,-3.9,-2.8,0,12813,49.718,23.91,11887.6
2672892601,0.634769,2.223,95.5658,-0.0927966,0.126884,0.930282,-0.0159284,-0.021611,-0.0026834,-0.365146,-0.204062,0.277033,-3.9,-2.8,0,12813,49.718,23.91,11887.6
2672992975,0.634769,2.223,95.5678,-0.18237,0.242327,0.914553,-0.0271186,-0.213455,-0.0432999,-1.79251,-1.20926,-0.330948,-3.9,-2.8,0,12813,49.718,23.91,11887.6
2673093356,0.634769,2.223,95.5627,-0.240177,0.306788,0.900466,-0.0372336,-0.534418,-0.0798675,-2.51432,-1.68844,1.28181,-3.9,-2.8,0,12813,49.718,23.91,11887.6
2673193717,0.634769,2.223,95.5678,-0.269217,0.338327,0.891612,-0.0417795,-0.94892,-0.0562791,-2.93924,-2.09188,1.8943,-3.9,-2.8,0,12813,49.718,23.91,11887.6
2673294084,0.634769,2.223,95.5763,-0.274497,0.34441,0.889562,-0.0506521,-1.37426,-0.0296917,-3.03467,-2.14147,1.82121,-3.9,-2.8,0,12813,49.718,23.91,11887.6
2673394435,0.634769,2.223,95.5862,-0.269856,0.339698,0.8902,-0.0635218,-1.78273,-0.0376523,-3.04053,-2.12134,1.60559,-3.9,-2.8,0,12813,49.718,23.91,11887.6
2673494829,0.634769,2.223,95.5871,-0.266439,0.333649,0.89045,-0.069822,-2.18279,-0.0416649,-2.85905,-2.02558,1.77671,-3.9,-2.8,0,12813,49.718,23.91,11887.6
2673595244,0.634769,2.223,95.5867,-0.265124,0.326444,0.891258,-0.0709074,-2.57454,-0.0406207,-2.7704,-2.06441,1.54786,4.1,3.6,0,12813,49.718,23.91,11887.6
2673695620,0.634769,2.223,95.5922,-0.236697,0.287799,0.9038,-0.0688764,-2.95706,-0.0399254,-2.82463,-2.09919,1.35121,4.1,3.6,0,12813,49.718,23.91,11887.6
2673795997,0.634769,2.223,95.5957,-0.0623376,0.0627655,0.936257,-0.0614124,-3.27958,0.0183745,-1.88288,-1.52363,1.1251,4.1,3.6,0,12802,49.694,23.969,11911.2
2673896418,0.634769,2.223,95.6075,0.139252,-0.175212,0.92252,-0.0555133,-3.19148,0.0635048,1.26371,0.805032,0.197719,4.1,3.6,0,12802,49.694,23.969,11911.2
2673996783,0.634769,2.223,95.6223,0.258251,-0.305098,0.893975,-0.0674541,-2.82224,-0.0252795,3.11901,2.48964,0.310529,4.1,3.6,0,12802,49.694,23.969,11911.2
2674097139,0.634769,2.223,95.6156,0.311753,-0.355744,0.877568,-0.100518,-2.35159,-0.101774,3.42656,2.94354,2.06293,4.1,3.6,0,12802,49.694,23.969,11911.2
2674197506,0.634769,2.223,95.5846,0.326762,-0.370259,0.872369,-0.125776,-1.78873,-0.126881,3.88514,3.19567,2.56262,4.1,3.6,0,12802,49.694,23.969,11911.2
2674297876,0.634769,2.223,95.5524,0.320573,-0.369441,0.872881,-0.15683,-1.19472,-0.126508,3.91217,3.2008,3.1047,4.1,3.6,0,12802,49.694,23.969,11911.2
2674398231,0.634769,2.223,95.5197,0.306984,-0.361602,0.87513,-0.174521,-0.595626,-0.0893539,4.00008,3.1209,3.09986,4.1,3.6,0,12802,49.694,23.969,11911.2
2674498538,0.634769,2.223,95.5005,0.290872,-0.347728,0.879887,-0.191557,-0.0322031,-0.065751,3.78188,2.95435,2.65691,4.1,3.6,0,12802,49.694,23.969,11911.2
2674598949,0.634769,2.223,95.4961,0.277746,-0.337424,0.883994,-0.195587,0.502188,-0.0444275,3.56828,2.72256,2.45556,-1.8,3.8,0,12802,49.694,23.969,11911.2
2674699314,0.634769,2.223,95.4935,0.265473,-0.29554,0.891483,-0.205018,1.02448,-0.0347734,3.56438,2.66167,2.17337,-1.8,3.8,0,12802,49.694,23.969,11911.2
2674799672,0.634769,2.223,95.5032,0.250987,-0.0625984,0.912564,-0.236211,1.5144,0.0809918,2.866,2.64782,1.63295,-1.8,3.8,0,12802,49.687,25.39,12615.5
2674899984,0.634769,2.223,95.5271,0.255102,0.170755,0.945971,-0.448831,1.68298,0.0584933,-0.58794,2.63745,-0.271995,-1.8,3.8,0,12802,49.687,25.39,12615.5
2675000291,0.634769,2.223,95.5462,0.264138,0.292217,0.972895,-0.76888,1.6781,-0.0361744,-2.22392,2.34056,0.835848,-1.8,3.8,0,12802,49.687,25.39,12615.5
2675100659,0.634769,2.223,95.5526,0.267534,0.352203,0.990272,-1.19097,1.59422,-0.0492278,-3.09903,2.45023,1.95371,-1.8,3.8,0,12802,49.687,25.39,12615.5
2675201041,0.634769,2.223,95.5811,0.265138,0.373322,0.999157,-1.63533,1.46301,-0.0551289,-3.49632,2.34781,1.8598,-1.8,3.8,0,12802,49.687,25.39,12615.5
2675301358,0.634769,2.223,95.6135,0.261825,0.375862,1.00279,-2.07972,1.32653,-0.0509855,-3.42832,2.37407,1.80618,-1.8,3.8,0,12802,49.687,25.39,12615.5
2675401655,0.634769,2.223,95.6064,0.241038,0.349618,0.996946,-2.51563,1.17133,-0.0534885,-3.4293,2.20389,2.04389,-1.8,3.8,0,12802,49.687,25.39,12615.5
2675502017,0.634769,2.223,95.595,0.206372,0.303262,0.985433,-2.90244,1.02509,-0.043556,-3.03709,1.90912,1.42708,-1.8,3.8,0,12802,49.687,25.39,12615.5
2675602455,0.634769,2.223,95.6065,0.173829,0.252274,0.97317,-3.23602,0.896341,-0.0195442,-2.63835,1.65255,1.11882,4.6,-1.7,0,12802,49.687,25.39,12615.5
2675702888,0.634769,2.223,95.6156,0.134061,0.192065,0.959675,-3.49109,0.793463,-0.0205494,-2.06024,1.2674,0.323126,4.6,-1.7,0,12802,49.687,25.39,12615.5
2675803292,0.634769,2.223,95.6188,-0.0240418,-0.00184366,0.940823,-3.69278,0.707818,0.00627245,-1.42403,0.798159,0.541803,4.6,-1.7,0,12802,49.687,25.39,12615.5
2675903659,0.634768,2.223,95.6194,-0.196892,-0.188775,0.957632,-3.55763,0.732183,0.0220082,1.55768,-1.3904,-0.447147,4.6,-1.7,0,12769,49.511,28.318,14020.5
2676004080,0.634768,2.223,95.6245,-0.289717,-0.293174,0.97908,-3.21276,0.783264,-0.0720211,2.68117,-2.54689,0.844653,4.6,-1.7,0,12769,49.511,28.318,14020.5
2676104444,0.634768,2.223,95.6225,-0.338486,-0.343369,0.991389,-2.73063,0.863115,-0.103821,3.42869,-3.15566,2.13249,4.6,-1.7,0,12769,49.511,28.318,14020.5
2676204797,0.634768,2.223,95.6006,-0.351555,-0.354643,0.991843,-2.17785,0.96114,-0.10219,3.66166,-3.25916,2.8902,4.6,-1.7,0,12769,49.511,28.318,14020.5
2676305166,0.634768,2.223,95.5865,-0.344581,-0.346875,0.985737,-1.62273,1.04519,-0.0860178,3.54266,-3.28891,2.78108,4.6,-1.7,0,12769,49.511,28.318,14020.5
2676405536,0.634768,2.223,95.5799,-0.326312,-0.336116,0.979425,-1.09335,1.1289,-0.0733175,3.40563,-3.19859,2.51376,4.6,-1.7,0,12769,49.511,28.318,14020.5
2676505886,0.634768,2.223,95.5706,-0.307996,-0.329953,0.975958,-0.57792,1.20584,-0.0556235,3.24744,-3.00508,2.49761,4.6,-1.7,0,12769,49.511,28.318,14020.5
2676606290,0.634768,2.223,95.5751,-0.290257,-0.32762,0.973748,-0.0920141,1.29909,-0.0498446,3.22553,-2.7806,2.08914,2.5,3.1,0,12769,49.511,28.318,14020.5
2676706647,0.634768,2.223,95.578,-0.262213,-0.320774,0.967583,0.374082,1.40832,-0.0328626,3.16248,-2.45805,2.07683,2.5,3.1,0,12769,49.511,28.318,14020.5
2676806993,0.634768,2.223,95.5791,-0.0664089,-0.256478,0.922624,0.822713,1.52181,0.0151264,3.02615,-2.27297,1.93724,2.5,3.1,0,12769,49.511,28.318,14020.5
2676907335,0.634768,2.223,95.5769,0.20899,-0.137351,0.906543,0.986579,1.71076,0.0380813,2.09464,0.491655,0.371793,2.5,3.1,0,12769,49.355,31.094,15346.4
2677007705,0.634768,2.223,95.5721,0.366703,-0.0672237,0.919783,0.838738,1.9414,-0.0459228,0.758526,3.03286,0.0951208,2.5,3.1,0,12769,49.355,31.094,15346.4
2677108047,0.634768,2.223,95.5649,0.440725,-0.0414543,0.930018,0.552832,2.21794,-0.0915015,0.300361,3.75072,1.94459,2.5,3.1,0,12769,49.355,31.094,15346.4
2677208416,0.634768,2.223,95.5744,0.436096,-0.0371519,0.935828,0.116113,2.60151,-0.0645201,0.250173,4.31945,2.2215,2.5,3.1,0,12769,49.355,31.094,15346.4
2677308761,0.634768,2.223,95.5892,0.369672,-0.0368614,0.939458,-0.212595,2.88476,-0.0343877,0.249065,3.84087,1.72098,2.5,3.1,0,12769,49.355,31.094,15346.4
2677409025,0.634768,2.223,95.5854,0.293509,-0.0404973,0.940279,-0.472744,3.10903,-0.00773136,0.193115,3.0688,1.10097,2.5,3.1,0,12769,49.355,31.094,15346.4
2677509283,0.634768,2.223,95.5855,0.228191,-0.0410953,0.940094,-0.658271,3.28123,0.000966167,0.266783,2.33007,0.436436,2.5,3.1,0,12769,49.355,31.094,15346.4
2677610743,0.634768,2.223,95.6157,0.175716,-0.0403485,0.93888,-0.796114,3.41358,-0.0103885,0.26275,1.74625,-0.0570793,-2.6,1.2,0,12769,49.355,31.094,15346.4
2677711110,0.634768,2.223,95.6414,0.123474,-0.0154253,0.936968,-0.90812,3.52239,-0.0219854,0.292808,1.34039,0.215344,-2.6,1.2,0,12769,49.355,31.094,15346.4
2677811509,0.634768,2.223,95.6456,-0.00162676,0.185341,0.933384,-1.00848,3.56681,0.0350277,-0.708816,0.634145,0.192722,-2.6,1.2,0,12769,49.355,31.094,15346.4
2677911860,0.634768,2.223,95.6643,-0.0983087,0.330252,0.919156,-1.14404,3.30769,-0.000123989,-2.94123,-0.745708,-0.0214449,-2.6,1.2,0,12769,49.421,28.891,14278.2
2678012238,0.634768,2.223,95.6709,-0.15296,0.41133,0.906451,-1.28385,2.93358,-0.080327,-3.69604,-1.2607,1.27153,-2.6,1.2,0,12769,49.421,28.891,14278.2
2678112484,0.634768,2.223,95.6623,-0.185821,0.450119,0.900522,-1.43085,2.46886,-0.127437,-4.1521,-1.63469,1.85839,-2.6,1.2,0,12769,49.421,28.891,14278.2
2678212841,0.634768,2.223,95.6634,-0.199537,0.460178,0.900047,-1.56284,1.9526,-0.142418,-4.46585,-1.95413,2.00908,-2.6,1.2,0,12769,49.421,28.891,14278.2
2678313181,0.634768,2.223,95.6717,-0.190155,0.448212,0.90455,-1.69634,1.41484,-0.13525,-4.3626,-1.92752,2.56862,-2.6,1.2,0,12769,49.421,28.891,14278.2
2678413552,0.634768,2.223,95.6458,-0.16353,0.431186,0.91137,-1.82665,0.904111,-0.121949,-4.07724,-1.75154,2.37945,-2.6,1.2,0,12769,49.421,28.891,14278.2
2678513881,0.634768,2.223,95.6291,-0.135629,0.40995,0.916612,-1.96665,0.419567,-0.0908794,-3.97802,-1.48095,2.40356,-2.6,1.2,0,12769,49.421,28.891,14278.2
2678614242,0.634768,2.223,95.6385,-0.10102,0.353806,0.925642,-2.11204,-0.0110459,-0.0550254,-3.54221,-1.13739,1.90533,-2.5,3.9,0,12769,49.421,28.891,14278.2
2678714530,0.634768,2.223,95.6476,-0.055359,0.285211,0.933052,-2.22763,-0.350056,-0.017943,-2.75565,-0.94301,1.4916,-2.5,3.9,0,12769,49.421,28.891,14278.2
2678814842,0.634768,2.223,95.6528,0.113468,0.189866,0.960463,-2.35416,-0.58821,0.0812748,-2.12233,-0.0624481,0.347698,-2.5,3.9,0,12769,49.421,28.891,14278.2
2678915203,0.634768,2.223,95.6733,0.291047,0.129167,0.964952,-2.54917,-0.596979,-0.0306336,-1.08386,2.07863,-0.811347,-2.5,3.9,0,12724,49.365,29.672,14647.6
2679015563,0.634768,2.223,95.682,0.388758,0.107424,0.959769,-2.85085,-0.491469,-0.122499,-0.679582,3.11994,1.03903,-2.5,3.9,0,12724,49.365,29.672,14647.6
2679115911,0.634768,2.223,95.6715,0.405293,0.0983223,0.953067,-3.23872,-0.306216,-0.1321,-0.560619,3.85711,1.79632,-2.5,3.9,0,12724,49.365,29.672,14647.6
2679216321,0.634768,2.223,95.6579,0.362245,0.0909126,0.946664,-3.62057,-0.117783,-0.110985,-0.526896,3.67443,1.86708,-2.5,3.9,0,12724,49.365,29.672,14647.6
2679316674,0.634768,2.223,95.6396,0.295753,0.085091,0.942707,-3.94465,0.0486988,-0.0906235,-0.476845,3.19735,1.3602,-2.5,3.9,0,12724,49.365,29.672,14647.6
2679417033,0.634768,2.223,95.61,0.230425,0.0801228,0.940732,-4.18927,0.174644,-0.0785087,-0.36198,2.46397,0.89092,-2.5,3.9,0,12724,49.365,29.672,14647.6
2679517434,0.634768,2.223,95.5759,0.178142,0.076703,0.940001,-4.37606,0.265512,-0.0689821,-0.343884,1.81195,0.687659,-2.5,3.9,0,12724,49.365,29.672,14647.6
2679617862,0.634768,2.223,95.572,0.139014,0.0741945,0.939921,-4.51009,0.335226,-0.0573097,-0.271988,1.27406,0.415036,-0.4,1.8,0,12724,49.365,29.672,14647.6
2679718401,0.634767,2.223,95.5808,0.090163,0.048289,0.936698,-4.6175,0.390768,-0.0569509,-0.28019,1.03602,0.291891,-0.4,1.8,0,12724,49.365,29.672,14647.6
2679818777,0.634767,2.223,95.5811,-0.0840037,-0.114237,0.941413,-4.65688,0.445413,0.0115787,0.420533,0.186287,0.624137,-0.4,1.8,0,12724,49.365,29.672,14647.6
2679919121,0.634767,2.223,95.5938,-0.223203,-0.216669,0.96241,-4.38958,0.540813,-0.000852264,2.35953,-1.98001,-0.173562,-0.4,1.8,0,12724,49.51,26.74,13239
2680019452,0.634767,2.223,95.6159,-0.27778,-0.24732,0.973542,-4.00075,0.620748,-0.068737,2.72473,-2.68918,1.14553,-0.4,1.8,0,12724,49.51,26.74,13239
2680119811,0.634767,2.223,95.6241,-0.27622,-0.23119,0.97042,-3.5496,0.695507,-0.064271,2.81962,-2.93895,1.67398,-0.4,1.8,0,12724,49.51,26.74,13239
2680220188,0.634767,2.223,95.6081,-0.236748,-0.192346,0.961564,-3.14454,0.749275,-0.0787845,2.47609,-2.76499,1.03421,-0.4,1.8,0,12724,49.51,26.74,13239
2680320483,0.634767,2.223,95.5907,-0.184816,-0.143704,0.95121,-2.8099,0.797802,-0.0816455,2.05632,-2.25329,0.812244,-0.4,1.8,0,12724,49.51,26.74,13239
2680422506,0.634767,2.223,95.5775,-0.132793,-0.0978564,0.94463,-2.54711,0.831932,-0.0736011,1.50961,-1.74991,0.529459,-0.4,1.8,0,12724,49.51,26.74,13239
2680527796,0.634767,2.223,95.5523,-0.0877305,-0.057856,0.940841,-2.36235,0.853149,-0.0749081,1.02944,-1.21094,0.154184,-0.4,1.8,0,12724,49.51,26.74,13239
2680628228,0.634767,2.223,95.5507,-0.0564697,-0.027714,0.93884,-2.23259,0.867322,-0.0683592,0.661534,-0.811821,0.188201,-2.1,1.7,0,12724,49.51,26.74,13239
2680728546,0.634767,2.223,95.5468,-0.0363513,0.0111582,0.936494,-2.15147,0.870653,-0.0540893,0.308505,-0.499648,0.356358,-2.1,1.7,0,12724,49.51,26.74,13239
2680828913,0.634767,2.223,95.5378,-0.0324984,0.152688,0.934942,-2.10441,0.855943,-0.00418337,-0.381433,-0.331692,0.207376,-2.1,1.7,0,12724,49.51,26.74,13239
2680929301,0.634767,2.223,95.5251,-0.0340788,0.250934,0.932079,-2.16556,0.698062,-0.0495173,-1.85808,-0.359609,0.220234,-2.1,1.7,0,12724,49.396,28.41,14033.4
2681029674,0.634767,2.223,95.5087,-0.0303918,0.291535,0.930688,-2.29947,0.418863,-0.0602418,-2.63949,-0.340859,0.92288,-2.1,1.7,0,12724,49.396,28.41,14033.4
2681130015,0.634767,2.223,95.4958,-0.0267588,0.284405,0.930556,-2.43365,0.174681,-0.0517161,-2.56045,-0.314681,1.25398,-2.1,1.7,0,12724,49.396,28.41,14033.4
2681230321,0.634767,2.223,95.4908,-0.0232143,0.251499,0.931285,-2.56062,-0.0532246,-0.0298611,-2.3868,-0.276731,0.930939,-2.1,1.7,0,12724,49.396,28.41,14033.4
2681330689,0.634767,2.223,95.4957,-0.0196147,0.207443,0.932549,-2.65916,-0.234547,-0.0142384,-1.93123,-0.249542,0.554775,-2.1,1.7,0,12724,49.396,28.41,14033.4
2681430961,0.634767,2.223,95.5054,-0.0161279,0.166283,0.933833,-2.7348,-0.372967,-0.00576882,-1.44909,-0.17325,0.374643,-2.1,1.7,0,12724,49.396,28.41,14033.4
2681531209,0.634767,2.223,95.5165,-0.0150792,0.133045,0.934825,-2.79436,-0.477818,0.00453581,-1.10707,-0.17211,0.0142792,-2.1,1.7,0,12724,49.396,28.41,14033.4
2681631520,0.634767,2.223,95.5231,-0.013015,0.106474,0.9356,-2.83558,-0.559393,0.0125274,-0.815793,-0.162822,-0.184571,2.8,3.6,0,12724,49.396,28.41,14033.4
2681731975,0.634767,2.223,95.526,-0.00260851,0.0640284,0.93875,-2.86895,-0.623479,0.00782808,-0.702943,-0.162781,0.142437,2.8,3.6,0,12724,49.396,28.41,14033.4
2681832703,0.634767,2.223,95.5312,0.0717672,-0.148918,0.934057,-2.8821,-0.618602,0.040798,0.541024,0.217717,0.2398,2.8,3.6,0,12724,49.396,28.41,14033.4
2681933615,0.634766,2.223,95.5451,0.127804,-0.294214,0.919995,-2.8156,-0.355741,0.0115964,2.67887,0.992661,0.162744,2.8,3.6,0,12724,49.396,28.41,14033.4
2682034951,0.634766,2.223,95.548,0.164411,-0.382842,0.906919,-2.71872,0.0255523,-0.0432256,3.7026,1.38965,1.27361,2.8,3.6,0,12724,49.416,27.534,13606.2
2682135301,0.634766,2.223,95.5314,0.177878,-0.421318,0.900609,-2.58747,0.500003,-0.0541667,4.25271,1.54104,2.05916,2.8,3.6,0,12724,49.416,27.534,13606.2
2682235655,0.634766,2.223,95.5123,0.178787,-0.435196,0.898797,-2.44258,1.00997,-0.0650599,4.48504,1.59973,2.20726,2.8,3.6,0,12724,49.416,27.534,13606.2
2682335999,0.634766,2.223,95.5031,0.172981,-0.431232,0.900009,-2.2867,1.53079,-0.055283,4.47722,1.49424,2.43943,2.8,3.6,0,12724,49.416,27.534,13606.2
2682436408,0.634766,2.223,95.4978,0.166636,-0.422154,0.901944,-2.13457,2.03922,-0.0446913,4.30345,1.4848,2.37027,2.8,3.6,0,12724,49.416,27.534,13606.2
2682536759,0.634766,2.223,95.4988,0.156166,-0.398746,0.905816,-1.98515,2.537,-0.031673,4.25314,1.45538,2.17072,2.8,3.6,0,12724,49.416,27.534,13606.2
2682637163,0.634766,2.223,95.4977,0.129818,-0.33998,0.915031,-1.84641,2.98871,-0.0119103,3.80393,1.26978,1.65698,3.3,-4.8,0,12724,49.416,27.534,13606.2
2682737518,0.634766,2.223,95.4924,0.0691969,-0.271635,0.930499,-1.73666,3.35752,-0.00375854,3.0065,1.06875,1.49401,3.3,-4.8,0,12724,49.416,27.534,13606.2
2682837909,0.634766,2.223,95.4968,-0.149153,-0.172883,0.958357,-1.59383,3.62018,0.077703,2.36664,-0.0188202,1.24135,3.3,-4.8,0,12724,49.416,27.534,13606.2
2682938295,0.634766,2.223,95.5049,-0.3137,-0.0924502,0.955569,-1.32705,3.60096,0.0585979,1.14009,-2.59005,-0.0294729,3.3,-4.8,0,12724,49.416,27.534,13606.2
2683038643,0.634766,2.223,95.5144,-0.400844,-0.0497477,0.945137,-1.00193,3.45173,-0.0126293,0.48455,-3.58406,1.13461,3.3,-4.8,0,12724,49.382,27.035,13350.4
2683139048,0.634766,2.223,95.5443,-0.442451,-0.0276889,0.935864,-0.615375,3.21508,-0.0144399,0.143214,-4.10154,2.07212,3.3,-4.8,0,12724,49.382,27.035,13350.4
2683239404,0.634766,2.223,95.576,-0.45317,-0.0160679,0.928872,-0.223836,2.93335,-0.00800025,-0.0972919,-4.45187,1.67581,3.3,-4.8,0,12724,49.382,27.035,13350.4
2683339762,0.634766,2.223,95.5616,-0.446758,-0.0159717,0.927348,0.151461,2.64421,-0.0283324,-0.102594,-4.30296,1.82143,3.3,-4.8,0,12724,49.382,27.035,13350.4
2683440122,0.634766,2.223,95.5473,-0.436805,-0.022619,0.928618,0.527676,2.35909,-0.0345708,-0.0293148,-4.19073,2.00246,3.3,-4.8,0,12724,49.382,27.035,13350.4
2683540460,0.634766,2.223,95.5429,-0.428334,-0.0290582,0.929807,0.887338,2.08611,-0.0369525,-0.013631,-3.96254,1.90968,3.3,-4.8,0,12724,49.382,27.035,13350.4
2683640854,0.634766,2.223,95.5465,-0.419319,-0.0378279,0.932426,1.24709,1.81864,-0.0397809,0.075752,-3.89311,1.80859,3.1,1.4,0,12724,49.382,27.035,13350.4
2683741205,0.634766,2.223,95.5357,-0.393064,-0.0483285,0.932937,1.60675,1.56679,-0.0397115,0.219453,-3.85632,1.47603,3.1,1.4,0,12724,49.382,27.035,13350.4
2683841563,0.634766,2.223,95.5265,-0.175155,-0.0743034,0.926839,1.94419,1.3426,-0.0105456,0.23237,-3.26481,1.53047,3.1,1.4,0,12724,49.382,27.035,13350.4
2683941952,0.634766,2.223,95.5363,0.147771,-0.113749,0.920156,2.04402,1.33823,0.0382354,0.789581,-0.149182,0.241053,3.1,1.4,0,12724,49.382,27.035,13350.4
2684042296,0.634766,2.223,95.5449,0.3309,-0.133657,0.915724,1.88262,1.56486,-0.0184209,1.06577,3.16112,-0.110113,3.1,1.4,0,12713,49.346,27.875,13755.2
2684142631,0.634766,2.223,95.5531,0.381426,-0.137386,0.917271,1.62558,1.893,-0.0621196,1.15136,3.88836,1.6872,3.1,1.4,0,12713,49.346,27.875,13755.2
2684242969,0.634766,2.223,95.5645,0.349862,-0.128571,0.924288,1.33392,2.24914,-0.0371645,1.11031,4.0034,1.76642,3.1,1.4,0,12713,49.346,27.875,13755.2
2684344573,0.634766,2.223,95.5569,0.271086,-0.113123,0.932515,1.08125,2.55168,-0.0198454,0.945438,3.43192,1.30903,3.1,1.4,0,12713,49.346,27.875,13755.2
2684449769,0.634766,2.223,95.5499,0.189595,-0.0969387,0.937003,0.86831,2.79924,-0.00918331,0.625639,2.3416,0.625195,3.1,1.4,0,12713,49.346,27.875,13755.2
2684550109,0.634766,2.223,95.5622,0.134719,-0.0886097,0.937305,0.748482,2.94816,0.000364551,0.552868,1.70647,0.107966,3.1,1.4,0,12713,49.346,27.875,13755.2
2684650519,0.634766,2.223,95.5799,0.0917811,-0.0840559,0.937563,0.659443,3.05771,-0.00485059,0.426612,1.13617,0.0388183,1.8,-3.2,0,12713,49.346,27.875,13755.2
2684750875,0.634766,2.223,95.5882,0.0288891,-0.0697855,0.940176,0.605348,3.1539,-0.00840401,0.476819,0.744048,0.179787,1.8,-3.2,0,12713,49.346,27.875,13755.2
2684851210,0.634766,2.223,95.5974,-0.166449,0.00504558,0.94004,0.605794,3.18964,0.0268063,0.143112,-0.42402,0.325235,1.8,-3.2,0,12713,49.346,27.875,13755.2
2684951572,0.634766,2.223,95.6106,-0.314556,0.0610935,0.927124,0.733375,3.00247,-0.00103139,-0.771448,-2.52851,0.053856,1.8,-3.2,0,12713,49.346,27.875,13755.2
2685051896,0.634766,2.223,95.6206,-0.400128,0.0904698,0.91497,0.936696,2.71643,-0.0441673,-1.06195,-3.45599,1.26886,1.8,-3.2,0,12713,49.341,29.224,14419.4
2685152281,0.634766,2.223,95.6322,-0.438192,0.104005,0.907327,1.18119,2.35231,-0.0409071,-1.30206,-3.86979,1.98889,1.8,-3.2,0,12713,49.341,29.224,14419.4
2685252686,0.634766,2.223,95.6474,-0.447053,0.105635,0.904206,1.43343,1.96047,-0.0559637,-1.46742,-4.13381,1.71595,1.8,-3.2,0,12713,49.341,29.224,14419.4
2685353082,0.634766,2.223,95.6468,-0.439017,0.0959595,0.905464,1.69142,1.57341,-0.0594639,-1.32221,-4.04662,1.76857,1.8,-3.2,0,12713,49.341,29.224,14419.4
2685454845,0.634766,2.223,95.6384,-0.42973,0.0801856,0.909736,1.9566,1.2061,-0.0668107,-1.2289,-3.98494,1.67641,1.8,-3.2,0,12713,49.341,29.224,14419.4
2685555248,0.634767,2.223,95.6405,-0.421084,0.0604205,0.915868,2.22629,0.854403,-0.071276,-1.03752,-3.82897,1.86627,1.8,-3.2,0,12713,49.341,29.224,14419.4
2685661552,0.634767,2.223,95.6402,-0.3804,0.0379177,0.923348,2.50418,0.5288,-0.0595258,-0.782019,-3.67363,1.59244,1.2,1.2,0,12713,49.341,29.224,14419.4
2685766273,0.634767,2.223,95.6414,-0.308735,0.0164819,0.929607,2.74527,0.269124,-0.0516584,-0.481933,-3.12944,0.991587,1.2,1.2,0,12713,49.341,29.224,14419.4
2685866681,0.634767,2.223,95.6371,-0.0637018,0.0318867,0.936018,2.95538,0.0652493,0.013955,-0.350546,-2.36602,0.712419,1.2,1.2,0,12713,49.341,29.224,14419.4
2685967044,0.634767,2.223,95.6447,0.244642,0.0441518,0.945351,2.88288,0.0392231,0.0106895,-0.560964,1.14902,-0.382493,1.2,1.2,0,12713,49.341,29.224,14419.4
2686067394,0.634767,2.223,95.6378,0.407899,0.0496917,0.94964,2.5662,0.181013,-0.0825996,-0.639334,3.73855,0.420913,1.2,1.2,0,12713,49.341,29.224,14419.4
2686167748,0.634767,2.223,95.6425,0.481629,0.0538278,0.953511,2.02976,0.456885,-0.134533,-0.637412,4.62846,2.38443,1.2,1.2,0,12713,49.341,29.224,14419.4
2686268107,0.634767,2.223,95.6552,0.476889,0.0555954,0.955569,1.51672,0.723261,-0.129753,-0.676181,5.02161,2.64121,1.2,1.2,0,12713,49.341,29.224,14419.4
2686368432,0.634767,2.223,95.6419,0.40022,0.0523372,0.953926,1.04089,0.955766,-0.101575,-0.793634,4.46567,2.31583,1.2,1.2,0,12713,49.341,29.224,14419.4
2686468744,0.634767,2.223,95.6272,0.310285,0.0400954,0.949455,0.659811,1.13074,-0.0600441,-0.707823,3.6112,1.47882,1.2,1.2,0,12713,49.341,29.224,14419.4
2686569102,0.634767,2.223,95.6419,0.227419,0.0211729,0.944448,0.387826,1.26767,-0.0537071,-0.467579,2.66881,0.364851,1.2,1.2,0,12680,49.181,31.19,15339.6
2686669460,0.634767,2.223,95.6514,0.163946,0.00725727,0.940985,0.180149,1.37496,-0.0428254,-0.312667,1.93846,0.376892,-0.6,-3.7,0,12680,49.181,31.19,15339.6
2686769829,0.634767,2.223,95.661,0.0976996,0.00170478,0.939931,0.0259013,1.45923,-0.033473,-0.119307,1.39514,0.480643,-0.6,-3.7,0,12680,49.181,31.19,15339.6
2686870209,0.634767,2.223,95.6666,-0.113566,0.0607159,0.933456,-0.0421951,1.49281,0.00394882,-0.304172,0.0851445,-0.0761911,-0.6,-3.7,0,12680,49.181,31.19,15339.6
2686970537,0.634767,2.223,95.6713,-0.294543,0.106144,0.921243,0.0422995,1.31397,-0.0505697,-1.04129,-2.31602,-0.168523,-0.6,-3.7,0,12680,49.181,31.19,15339.6
2687070882,0.634767,2.223,95.6771,-0.398642,0.133768,0.910419,0.221012,1.02679,-0.0997153,-1.2286,-3.2693,1.23009,-0.6,-3.7,0,12680,49.181,31.19,15339.6
2687171229,0.634767,2.223,95.6766,-0.441523,0.149742,0.904266,0.460066,0.653187,-0.12174,-1.45978,-3.87984,1.94411,-0.6,-3.7,0,12680,49.181,31.19,15339.6
2687271578,0.634767,2.223,95.6764,-0.446928,0.156496,0.90128,0.716182,0.246835,-0.112355,-1.53138,-3.99637,2.34946,-0.6,-3.7,0,12680,49.181,31.19,15339.6
2687371936,0.634767,2.223,95.6684,-0.429629,0.156275,0.901772,0.973549,-0.16578,-0.0932746,-1.58677,-4.00822,2.22881,-0.6,-3.7,0,12680,49.181,31.19,15339.6
2687472323,0.634767,2.223,95.6685,-0.417108,0.152559,0.903672,1.20572,-0.557063,-0.0742849,-1.55423,-3.76295,1.96496,-0.6,-3.7,0,12680,49.181,31.19,15339.6
2687572667,0.634767,2.223,95.6782,-0.409077,0.1456,0.906445,1.42902,-0.928244,-0.0711189,-1.50281,-3.55115,1.79983,-0.6,-3.7,0,12680,49.181,31.19,15339.6
2687673044,0.634767,2.223,95.6854,-0.392521,0.131934,0.91248,1.64366,-1.28225,-0.0733574,-1.45344,-3.37512,1.58274,-4.3,-2.9,0,12680,49.335,27.645,13638.7
2687773406,0.634767,2.223,95.6845,-0.334433,0.132706,0.919453,1.86905,-1.59832,-0.0574579,-0.945202,-3.10261,1.75591,-4.3,-2.9,0,12680,49.335,27.645,13638.7
2687873760,0.634767,2.223,95.6858,-0.205631,0.247232,0.924936,2.01678,-1.89537,0.000310831,-1.66749,-2.32655,1.10457,-4.3,-2.9,0,12680,49.335,27.645,13638.7
2687974163,0.634767,2.223,95.6819,-0.0941956,0.33002,0.930808,1.95094,-2.18094,-0.0491455,-2.74972,-0.883391,0.301226,-4.3,-2.9,0,12680,49.335,27.645,13638.7
2688074537,0.634767,2.223,95.6721,-0.0284885,0.372715,0.933098,1.77031,-2.46447,-0.10532,-3.21784,0.0164097,0.964638,-4.3,-2.9,0,12680,49.335,27.645,13638.7
2688174892,0.634767,2.223,95.6808,0.000563704,0.388529,0.932024,1.51601,-2.7568,-0.106986,-3.45323,0.472616,1.54213,-4.3,-2.9,0,12680,49.335,27.645,13638.7
2688276925,0.634767,2.223,95.6904,0.00186691,0.386206,0.928219,1.23122,-3.04006,-0.105913,-3.63721,0.649449,1.28401,-4.3,-2.9,0,12680,49.335,27.645,13638.7
2688382084,0.634767,2.223,95.6831,-0.0100909,0.37667,0.924191,0.975556,-3.31371,-0.0930671,-3.33323,0.446761,1.33802,-4.3,-2.9,0,12680,49.335,27.645,13638.7
2688482487,0.634767,2.223,95.6777,-0.0274301,0.368755,0.921412,0.733373,-3.57461,-0.0846269,-3.21762,0.369929,1.29381,-4.3,-2.9,0,12680,49.335,27.645,13638.7
2688582858,0.634767,2.223,95.6828,-0.0439563,0.34526,0.920018,0.502062,-3.83406,-0.0770174,-3.21672,0.279893,1.00269,-4.3,-2.9,0,12680,49.335,27.645,13638.7
2688683245,0.634767,2.223,95.6812,-0.0587501,0.307375,0.920887,0.319999,-4.07183,-0.0759228,-2.75904,-0.0031955,0.756018,-1.5,1.4,0,12680,49.335,27.882,13755.6
2688783589,0.634767,2.223,95.6691,-0.0631228,0.257744,0.926069,0.171187,-4.28784,-0.0877873,-2.39496,-0.18017,0.560686,-1.5,1.4,0,12680,49.335,27.882,13755.6
2688883916,0.634767,2.223,95.6519,0.0785184,0.0770915,0.950078,0.0394629,-4.48189,0.00415862,-1.8429,-0.032849,1.07034,-1.5,1.4,0,12680,49.335,27.882,13755.6
2688984349,0.634767,2.223,95.6496,0.27703,-0.0936781,0.932461,-0.0934658,-4.32974,0.0251264,0.789228,2.27989,-0.0958711,-1.5,1.4,0,12680,49.335,27.882,13755.6
2689084711,0.634767,2.223,95.6422,0.395629,-0.175955,0.902645,-0.284293,-3.96978,-0.107623,1.90193,3.72137,0.667498,-1.5,1.4,0,12680,49.335,27.882,13755.6
2689185068,0.634767,2.223,95.6268,0.451809,-0.210157,0.88373,-0.533913,-3.4727,-0.146562,2.29077,4.37574,2.50247,-1.5,1.4,0,12680,49.335,27.882,13755.6
2689285436,0.634767,2.223,95.6174,0.467303,-0.215502,0.876831,-0.805322,-2.91562,-0.159932,2.5718,4.74689,2.75033,-1.5,1.4,0,12680,49.335,27.882,13755.6
2689385792,0.634767,2.223,95.5869,0.440529,-0.190732,0.883977,-1.06933,-2.34661,-0.15276,2.53984,4.64832,2.95374,-1.5,1.4,0,12680,49.335,27.882,13755.6
2689486134,0.634767,2.223,95.559,0.368123,-0.146211,0.900773,-1.32365,-1.82912,-0.124115,2.24327,4.24938,2.55455,-1.5,1.4,0,12680,49.335,27.882,13755.6
2689586478,0.634767,2.223,95.5407,0.279963,-0.104386,0.914578,-1.53266,-1.40825,-0.0853488,1.84468,3.4884,1.92343,-1.5,1.4,0,12680,49.335,27.882,13755.6
2689686838,0.634767,2.223,95.5294,0.198673,-0.0624007,0.925198,-1.68684,-1.0872,-0.0344097,1.35429,2.62892,1.07782,2.3,-1.6,0,12668,49.295,28.179,13890.8
2689787194,0.634767,2.223,95.5261,0.124607,-0.0423557,0.929653,-1.78278,-0.866906,-0.0310243,0.982173,1.74235,0.297845,2.3,-1.6,0,12668,49.295,28.179,13890.8
2689887561,0.634767,2.223,95.5246,-0.0385688,-0.155455,0.940516,-1.82588,-0.673114,0.0503329,1.16392,0.589668,0.516528,2.3,-1.6,0,12668,49.295,28.179,13890.8
2689987910,0.634767,2.223,95.5362,-0.186231,-0.267501,0.965176,-1.64992,-0.539621,0.0155128,2.47683,-1.03092,-0.0967681,2.3,-1.6,0,12668,49.295,28.179,13890.8
2690088303,0.634767,2.223,95.5455,-0.274865,-0.331959,0.984867,-1.30199,-0.371098,-0.0549215,3.11559,-1.98644,1.30413,2.3,-1.6,0,12668,49.295,28.179,13890.8
2690188669,0.634767,2.223,95.5365,-0.312184,-0.359814,0.994751,-0.730901,-0.150843,-0.068559,3.70026,-2.61371,2.27556,2.3,-1.6,0,12668,49.295,28.179,13890.8
2690288995,0.634767,2.223,95.5244,-0.317305,-0.364559,0.995768,-0.319966,-0.00488943,-0.0712377,3.77391,-2.69191,2.60907,2.3,-1.6,0,12668,49.295,28.179,13890.8
2690389260,0.634767,2.223,95.489,-0.307758,-0.359046,0.992611,0.302132,0.215691,-0.0515102,3.75916,-2.67255,2.69193,2.3,-1.6,0,12668,49.295,28.179,13890.8
2690489609,0.634767,2.223,95.4536,-0.291026,-0.340921,0.987038,0.792216,0.383781,-0.0345316,3.55006,-2.54026,2.49527,2.3,-1.6,0,12668,49.295,28.179,13890.8
2690589974,0.634767,2.223,95.4419,-0.252563,-0.290927,0.973808,1.2434,0.531848,-0.00758094,3.24751,-2.39803,1.91762,2.3,-1.6,0,12668,49.295,28.179,13890.8
2690690360,0.634767,2.223,95.4384,-0.204782,-0.23219,0.960909,1.61088,0.646049,0.0167329,2.62892,-1.94857,1.31628,0.1,-1.6,0,12668,49.263,27.716,13653.7
2690790659,0.634767,2.223,95.4318,-0.163238,-0.159542,0.950561,1.89781,0.73571,0.0378199,2.08114,-1.43021,1.27889,0.1,-1.6,0,12668,49.263,27.716,13653.7
2690891023,0.634767,2.223,95.4302,-0.123548,0.0663634,0.94025,2.08524,0.762132,0.125749,0.553928,-1.06897,0.0408717,0.1,-1.6,0,12668,49.263,27.716,13653.7
2690991345,0.634767,2.223,95.4551,-0.104159,0.223308,0.931172,2.05348,0.583067,0.0564295,-1.97213,-0.694898,-0.619997,0.1,-1.6,0,12668,49.263,27.716,13653.7
2691091633,0.634767,2.223,95.4673,-0.0986358,0.284133,0.92699,1.95484,0.328233,0.00485871,-2.63568,-0.53267,0.930725,0.1,-1.6,0,12668,49.263,27.716,13653.7
2691191983,0.634767,2.223,95.4897,-0.0887414,0.280205,0.926922,1.83247,0.0454623,0.0138504,-2.8766,-0.449253,0.883888,0.1,-1.6,0,12668,49.263,27.716,13653.7
2691292397,0.634767,2.223,95.5202,-0.0783946,0.23942,0.928739,1.71582,-0.200585,0.0125925,-2.55943,-0.376567,0.513459,0.1,-1.6,0,12668,49.263,27.716,13653.7
2691392753,0.634767,2.223,95.5244,-0.0677857,0.184889,0.931318,1.62221,-0.397073,0.00810954,-1.9936,-0.315159,0.318574,0.1,-1.6,0,12668,49.263,27.716,13653.7
2691493093,0.634767,2.223,95.5235,-0.0596757,0.143521,0.932941,1.54255,-0.546416,0.00936744,-1.50872,-0.222916,0.296729,0.1,-1.6,0,12668,49.263,27.716,13653.7
2691593428,0.634767,2.223,95.5363,-0.0523775,0.106912,0.934323,1.47722,-0.656767,0.0155652,-1.13241,-0.119878,-0.223332,0.1,-1.6,0,12668,49.263,27.716,13653.7
2691693784,0.634767,2.223,95.5484,-0.0472661,0.0812281,0.934934,1.43136,-0.743858,0.0113241,-0.790826,-0.193093,-0.194988,-1.7,4.3,0,12668,49.315,27.262,13444.3
2691794090,0.634767,2.223,95.5482,-0.0202838,0.0662799,0.934259,1.39071,-0.806718,0.0122126,-0.523665,-0.0662875,0.609924,-1.7,4.3,0,12668,49.315,27.262,13444.3
2691894444,0.634767,2.223,95.5472,0.14169,0.0917649,0.94496,1.31434,-0.834086,0.0702365,-0.553683,0.805205,-0.192058,-1.7,4.3,0,12668,49.315,27.262,13444.3
2691994786,0.634767,2.223,95.5515,0.310057,0.121731,0.957829,1.05819,-0.775809,-0.0188769,-0.933642,2.57979,0.0119473,-1.7,4.3,0,12668,49.315,27.262,13444.3
2692095143,0.634767,2.223,95.5433,0.391371,0.135882,0.964518,0.670767,-0.658455,-0.0621629,-1.07184,3.63046,1.38396,-1.7,4.3,0,12668,49.315,27.262,13444.3
2692195465,0.634767,2.223,95.5332,0.428164,0.142941,0.967976,0.207591,-0.498073,-0.0787028,-1.1674,4.17348,2.00968,-1.7,4.3,0,12668,49.315,27.262,13444.3
2692295824,0.634767,2.223,95.5132,0.429844,0.144176,0.967633,-0.294828,-0.331047,-0.079645,-1.25689,4.2815,2.49505,-1.7,4.3,0,12668,49.315,27.262,13444.3
2692396226,0.634767,2.223,95.475,0.421532,0.143249,0.966597,-0.786596,-0.157401,-0.0509576,-1.15128,4.21334,2.49246,-1.7,4.3,0,12668,49.315,27.262,13444.3
2692496572,0.634767,2.223,95.4454,0.415204,0.141648,0.966193,-1.25964,0.0114071,-0.0284962,-1.15719,4.10487,2.28882,-1.7,4.3,0,12668,49.315,27.262,13444.3
2692596916,0.634767,2.223,95.4429,0.406305,0.138758,0.965709,-1.7093,0.181298,-0.0163626,-1.03998,3.94407,2.07553,-1.7,4.3,0,12668,49.315,27.262,13444.3
2692697322,0.634767,2.223,95.4399,0.395639,0.13838,0.96575,-2.14383,0.348712,0.00284401,-0.943807,3.81906,1.92388,-3.5,-2.7,0,12636,49.244,28.833,14198.5
2692797608,0.634767,2.223,95.4451,0.359539,0.142216,0.964915,-2.56783,0.503354,0.0173278,-1.00016,3.62169,2.12472,-3.5,-2.7,0,12636,49.244,28.833,14198.5
2692897979,0.634767,2.223,95.4542,0.128879,0.160893,0.936125,-2.97171,0.626161,0.139386,-1.1801,3.17746,1.27079,-3.5,-2.7,0,12636,49.244,28.833,14198.5
2692998342,0.634767,2.223,95.4761,-0.206445,0.164629,0.911463,-3.08338,0.541666,0.157168,-1.24926,-0.251891,0.444281,-3.5,-2.7,0,12636,49.244,28.833,14198.5
2693100905,0.634767,2.223,95.499,-0.403989,0.166363,0.906519,-2.92324,0.25401,0.11115,-1.43463,-3.65423,-0.341908,-3.5,-2.7,0,12636,49.244,28.833,14198.5
2693205377,0.634767,2.223,95.5213,-0.475429,0.169204,0.907887,-2.67456,-0.0865471,-0.0528531,-1.24114,-4.05375,1.61028,-3.5,-2.7,0,12636,49.244,28.833,14198.5
2693305749,0.634767,2.223,95.5282,-0.482554,0.169258,0.911284,-2.36368,-0.509935,-0.0705492,-1.40157,-4.54189,2.46403,-3.5,-2.7,0,12636,49.244,28.833,14198.5
2693406101,0.634767,2.223,95.521,-0.463618,0.174998,0.911169,-2.03579,-0.933934,-0.0604744,-1.28558,-4.49906,2.52947,-3.5,-2.7,0,12636,49.244,28.833,14198.5
2693506449,0.634767,2.223,95.5031,-0.44441,0.180874,0.909656,-1.73133,-1.35092,-0.0541569,-1.3332,-4.2333,2.46903,-3.5,-2.7,0,12636,49.244,28.833,14198.5
2693606789,0.634767,2.223,95.4679,-0.424867,0.186371,0.908733,-1.44672,-1.76458,-0.0415204,-1.42449,-4.0446,2.34146,-3.5,-2.7,0,12636,49.244,28.833,14198.5
2693707136,0.634767,2.223,95.4369,-0.408911,0.191902,0.907815,-1.17652,-2.16202,-0.0352873,-1.37389,-3.85856,2.15306,-3,-1,0,12636,49.244,28.833,14198.5
2693807542,0.634767,2.223,95.4299,-0.380339,0.19656,0.907149,-0.920226,-2.54998,-0.0139608,-1.37751,-3.60975,2.09968,-3,-1,0,12636,49.384,26.511,13092.2
2693907939,0.634767,2.223,95.4266,-0.230519,0.170193,0.928582,-0.685291,-2.92916,0.0435216,-1.38927,-3.24473,1.73902,-3,-1,0,12636,49.384,26.511,13092.2
2694008360,0.634767,2.223,95.4304,-0.0811753,0.140481,0.938927,-0.593427,-3.16641,0.0630583,-1.03564,-1.13775,0.174082,-3,-1,0,12636,49.384,26.511,13092.2
2694108695,0.634767,2.223,95.4421,0.0156579,0.115028,0.941035,-0.623124,-3.23175,0.0355052,-0.671543,0.22182,0.080497,-3,-1,0,12636,49.384,26.511,13092.2
2694209047,0.634767,2.223,95.4575,0.0604338,0.0939013,0.939648,-0.689677,-3.25398,0.0339628,-0.550833,0.711752,0.0572725,-3,-1,0,12636,49.384,26.511,13092.2
2694309417,0.634767,2.223,95.479,0.0744594,0.0764008,0.937328,-0.767171,-3.22889,0.036817,-0.243947,1.01007,-0.0107398,-3,-1,0,12636,49.384,26.511,13092.2
2694409785,0.634767,2.223,95.4888,0.0662475,0.0668433,0.935941,-0.843292,-3.18941,0.0261162,-0.16255,1.01712,-0.0553991,-3,-1,0,12636,49.384,26.511,13092.2
2694510130,0.634767,2.223,95.4942,0.051958,0.0607023,0.935592,-0.898242,-3.14977,0.00923302,-0.0298303,0.764891,-0.156443,-3,-1,0,12636,49.384,26.511,13092.2
2694610431,0.634767,2.223,95.4978,0.0373318,0.0600181,0.935747,-0.952771,-3.11143,0.0130571,-0.0953876,0.716746,-0.206584,-3,-1,0,12636,49.384,26.511,13092.2
2694710840,0.634767,2.223,95.5004,0.0246405,0.0598189,0.936001,-0.996433,-3.0707,0.005383,-0.00532875,0.618391,0.0511233,-3.8,1.6,0,12636,49.384,26.511,13092.2
2694811248,0.634767,2.223,95.4988,0.0355261,0.0646563,0.935473,-1.03944,-3.04367,0.0232699,-0.0528754,0.408715,0.51742,-3.8,1.6,0,12592,49.379,28.207,13928.3
2694911589,0.634767,2.223,95.4938,0.170646,0.097081,0.947348,-1.12167,-2.99175,0.0444991,-0.201735,1.19129,-0.116359,-3.8,1.6,0,12592,49.379,28.207,13928.3
2695011949,0.634767,2.223,95.4965,0.297882,0.134373,0.958381,-1.34683,-2.88161,-0.0245284,-0.529647,2.49158,0.268591,-3.8,1.6,0,12592,49.379,28.207,13928.3
2695112287,0.634767,2.223,95.4903,0.369522,0.160357,0.963834,-1.71304,-2.72103,-0.0552438,-0.818007,3.50184,1.58541,-3.8,1.6,0,12592,49.379,28.207,13928.3
2695212696,0.634767,2.223,95.4747,0.36184,0.166316,0.96038,-2.1379,-2.54996,-0.0545258,-1.00445,3.75532,1.95907,-3.8,1.6,0,12592,49.379,28.207,13928.3
2695313094,0.634767,2.223,95.4617,0.304284,0.161355,0.954119,-2.5339,-2.39763,-0.0198004,-0.981971,3.37885,1.76071,-3.8,1.6,0,12592,49.379,28.207,13928.3
2695414934,0.634767,2.223,95.4431,0.231239,0.151607,0.949143,-2.83793,-2.28452,0.0040838,-0.877164,2.66136,1.10809,-3.8,1.6,0,12592,49.379,28.207,13928.3
2695515291,0.634767,2.223,95.4228,0.166983,0.14182,0.946125,-3.07347,-2.21196,0.0132581,-0.776721,1.93178,0.631948,-3.8,1.6,0,12592,49.379,28.207,13928.3
2695615655,0.634766,2.223,95.4231,0.119507,0.134587,0.945051,-3.25292,-2.17279,0.0222541,-0.73553,1.37853,0.527193,-3.8,1.6,0,12592,49.379,28.207,13928.3
2695716113,0.634766,2.223,95.4274,0.081261,0.12601,0.943569,-3.39268,-2.15454,0.030725,-0.695789,0.933529,0.288413,-4.3,-0.9,0,12592,49.379,28.207,13928.3
2695816464,0.634766,2.223,95.4345,0.0266118,0.121195,0.942173,-3.49568,-2.14502,0.0310607,-0.515765,0.696964,0.623638,-4.3,-0.9,0,12592,49.218,29.374,14457.3
2695916813,0.634766,2.223,95.4425,-0.155589,0.136336,0.923177,-3.54033,-2.18871,0.0841706,-0.665039,-0.444104,-0.111976,-4.3,-0.9,0,12592,49.218,29.374,14457.3
2696017152,0.634766,2.223,95.4571,-0.305379,0.153449,0.912193,-3.41909,-2.35496,0.0145213,-0.706039,-2.24913,0.177405,-4.3,-0.9,0,12592,49.218,29.374,14457.3
2696117501,0.634766,2.223,95.4729,-0.369055,0.160692,0.910147,-3.20561,-2.64301,-0.0187281,-1.01422,-3.33709,1.42986,-4.3,-0.9,0,12592,49.218,29.374,14457.3
2696217855,0.634766,2.223,95.4842,-0.360369,0.153872,0.915509,-2.94922,-2.95303,-0.00408627,-0.818088,-3.58186,1.65158,-4.3,-0.9,0,12592,49.218,29.374,14457.3
2696319470,0.634766,2.223,95.4923,-0.30819,0.142292,0.922921,-2.70608,-3.23175,-0.000148185,-0.755968,-3.28349,1.30556,-4.3,-0.9,0,12592,49.218,29.374,14457.3
2696425032,0.634766,2.223,95.4923,-0.242766,0.130117,0.928413,-2.50939,-3.45847,0.00672932,-0.650152,-2.67764,0.802066,-4.3,-0.9,0,12592,49.218,29.374,14457.3
2696526571,0.634766,2.223,95.4929,-0.184975,0.118849,0.930543,-2.36399,-3.62133,0.00880269,-0.427772,-1.90572,0.619545,-4.3,-0.9,0,12592,49.218,29.374,14457.3
2696626933,0.634766,2.223,95.5093,-0.138107,0.111261,0.931721,-2.26266,-3.74709,0.0117735,-0.367641,-1.33909,0.471878,-4.3,-0.9,0,12592,49.218,29.374,14457.3
2696727397,0.634766,2.223,95.5221,-0.102886,0.107222,0.93181,-2.20214,-3.83913,0.0052736,-0.372041,-0.874505,0.0669314,-1.8,3.5,0,12592,49.218,29.374,14457.3
2696827740,0.634766,2.223,95.5309,-0.0687655,0.0936982,0.933332,-2.16313,-3.90897,-0.00310606,-0.420379,-0.587333,0.0719599,-1.8,3.5,0,12592,49.332,25.072,12368.5
2696928088,0.634766,2.223,95.5302,0.108069,-0.0226019,0.938062,-2.14432,-3.96776,0.0379466,-0.198748,-0.120763,0.327039,-1.8,3.5,0,12592,49.332,25.072,12368.5
2697028446,0.634766,2.223,95.5278,0.276576,-0.114317,0.922183,-2.21425,-3.7588,0.0166387,1.34705,2.13677,0.145148,-1.8,3.5,0,12592,49.332,25.072,12368.5
2697128766,0.634766,2.223,95.515,0.377042,-0.165541,0.905165,-2.35968,-3.39743,-0.044782,2.01302,3.31749,1.15826,-1.8,3.5,0,12592,49.332,25.072,12368.5
2697229029,0.634766,2.223,95.495,0.427803,-0.189096,0.895333,-2.5576,-2.92926,-0.0743412,2.35308,3.99964,2.23887,-1.8,3.5,0,12592,49.332,25.072,12368.5
2697329293,0.634766,2.223,95.469,0.441798,-0.193079,0.89332,-2.78392,-2.40679,-0.0718271,2.53172,4.31236,2.71831,-1.8,3.5,0,12592,49.332,25.072,12368.5
2697429554,0.634766,2.223,95.4437,0.435937,-0.1895,0.894587,-3.06493,-1.76735,-0.0653827,2.49716,4.31327,2.76026,-1.8,3.5,0,12592,49.332,25.072,12368.5
2697529764,0.634766,2.223,95.4387,0.409103,-0.181386,0.897734,-3.24026,-1.34435,-0.0501545,2.53228,4.15219,2.83604,-1.8,3.5,0,12592,49.332,25.072,12368.5
2697630032,0.634766,2.223,95.4295,0.338278,-0.147505,0.909138,-3.46916,-0.767857,-0.00471687,2.31452,3.5656,2.20293,-1.8,3.5,0,12592,49.332,25.072,12368.5
2697730380,0.634765,2.223,95.4252,0.26245,-0.103231,0.921284,-3.61846,-0.409851,0.0270213,1.70266,2.81372,1.35018,4.3,3.2,0,12592,49.332,25.072,12368.5
2697830739,0.634765,2.223,95.4194,0.193113,-0.0784245,0.927151,-3.73479,-0.159496,0.029239,1.02187,2.09158,0.845841,4.3,3.2,0,12592,49.326,27.62,13623.8
2697931118,0.634765,2.223,95.4276,0.105126,-0.186622,0.932984,-3.77371,0.0605181,0.071508,1.56918,1.13552,0.813186,4.3,3.2,0,12592,49.326,27.62,13623.8
2698031451,0.634765,2.223,95.4353,0.0338594,-0.306951,0.937089,-3.64978,0.340219,0.0464145,2.88525,0.385556,0.495486,4.3,3.2,0,12592,49.326,27.62,13623.8
2698131730,0.634765,2.223,95.4292,-0.00116799,-0.378455,0.938231,-3.41644,0.676918,0.005009,3.82906,-0.126069,1.25621,4.3,3.2,0,12592,49.326,27.62,13623.8
2698232121,0.634765,2.223,95.4227,-0.0164279,-0.412831,0.937017,-3.11982,1.04798,-0.00825533,4.21641,-0.29075,1.894,4.3,3.2,0,12592,49.326,27.62,13623.8
2698332493,0.634765,2.223,95.412,-0.0169096,-0.423948,0.933471,-2.7998,1.43007,-0.00917572,4.44176,-0.37456,1.9364,4.3,3.2,0,12592,49.326,27.62,13623.8
2698432804,0.634765,2.223,95.3978,-0.0107555,-0.422119,0.930741,-2.4695,1.80677,-0.00334649,4.31223,-0.445565,2.25763,4.3,3.2,0,12592,49.326,27.62,13623.8
2698533049,0.634765,2.223,95.3888,0.000624236,-0.41694,0.928755,-2.14869,2.17369,-0.000641726,4.27915,-0.386348,1.91511,4.3,3.2,0,12592,49.326,27.62,13623.8
2698633339,0.634765,2.223,95.3833,0.0138279,-0.407938,0.927049,-1.85235,2.53416,0.00965374,4.09025,-0.204536,1.91766,4.3,3.2,0,12592,49.326,27.62,13623.8
2698733724,0.634765,2.223,95.3857,0.0270859,-0.39592,0.926065,-1.57573,2.88742,0.0157855,3.88219,-0.0978113,1.80475,0.4,-1.1,0,12592,49.326,27.62,13623.8
2698834094,0.634765,2.223,95.3885,0.0244524,-0.365728,0.92668,-1.32401,3.24028,0.0208149,3.88814,0.179972,1.7266,0.4,-1.1,0,12592,49.268,27.266,13433.4
2698934445,0.634765,2.223,95.4084,-0.114315,-0.184884,0.952082,-1.05642,3.56305,0.1642,3.33115,-0.227956,2.21336,0.4,-1.1,0,12592,49.268,27.266,13433.4
2699034842,0.634765,2.223,95.4384,-0.292605,0.0683144,0.930878,-0.831361,3.52099,0.195596,0.394956,-2.29391,-0.237914,0.4,-1.1,0,12592,49.268,27.266,13433.4
2699135118,0.634765,2.223,95.4568,-0.383348,0.191327,0.896475,-0.647235,3.20167,0.0824812,-1.76049,-3.55677,0.10354,0.4,-1.1,0,12592,49.268,27.266,13433.4
2699235992,0.634765,2.223,95.4743,-0.422025,0.243926,0.8761,-0.45675,2.76105,0.0110709,-2.23565,-3.6253,2.29964,0.4,-1.1,0,12592,49.268,27.266,13433.4
2699336403,0.634765,2.223,95.5286,-0.434945,0.256862,0.86765,-0.260433,2.24697,0.0113465,-2.62035,-4.1207,2.23258,0.4,-1.1,0,12592,49.268,27.266,13433.4
2699436731,0.634765,2.223,95.5783,-0.434672,0.248377,0.86785,-0.0804267,1.74309,-0.0106055,-2.58874,-3.96974,2.25043,0.4,-1.1,0,12592,49.268,27.266,13433.4
2699537063,0.634765,2.223,95.5911,-0.404752,0.217723,0.878352,0.112777,1.23862,-0.0174436,-2.42789,-4.00707,2.28399,0.4,-1.1,0,12592,49.268,27.266,13433.4
2699637429,0.634765,2.223,95.5932,-0.344006,0.171331,0.894918,0.285749,0.788903,-0.00349132,-2.12954,-3.50321,1.72055,0.4,-1.1,0,12592,49.268,27.266,13433.4
2699737829,0.634765,2.223,95.5935,-0.278807,0.121192,0.91014,0.431656,0.445695,-0.0186896,-1.49959,-2.87894,0.94875,-3.9,-2.9,0,12592,49.268,27.266,13433.4
2699838183,0.634765,2.223,95.5969,-0.220743,0.106426,0.919351,0.570938,0.191053,-0.00781377,-0.753878,-2.22917,1.0093,-3.9,-2.9,0,12592,49.268,27.266,13433.4
2699938557,0.634765,2.223,95.5887,-0.194908,0.200431,0.920864,0.648494,-0.0409176,0.00553467,-1.33499,-1.79574,0.33483,-3.9,-2.9,0,12592,49.196,29.125,14328.3
2700038922,0.634765,2.223,95.575,-0.193016,0.300178,0.909009,0.636549,-0.35345,-0.0380244,-2.44001,-1.56558,0.585863,-3.9,-2.9,0,12592,49.196,29.125,14328.3
2700139294,0.634765,2.223,95.5618,-0.196229,0.362751,0.898645,0.566984,-0.751795,-0.0605822,-3.08848,-1.48641,1.56483,-3.9,-2.9,0,12592,49.196,29.125,14328.3
2700239699,0.634765,2.223,95.5497,-0.201105,0.390742,0.891717,0.466456,-1.20354,-0.061657,-3.53094,-1.52849,1.87013,-3.9,-2.9,0,12592,49.196,29.125,14328.3
2700340058,0.634765,2.223,95.5419,-0.206399,0.396366,0.888662,0.347764,-1.66904,-0.0617404,-3.77583,-1.50889,1.9477,-3.9,-2.9,0,12592,49.196,29.125,14328.3
2700440405,0.634765,2.223,95.5393,-0.211739,0.388642,0.887709,0.235006,-2.13239,-0.0439859,-3.68965,-1.54377,1.97072,-3.9,-2.9,0,12592,49.196,29.125,14328.3
2700540765,0.634765,2.223,95.5431,-0.219988,0.376197,0.888161,0.136497,-2.56564,-0.0322702,-3.50135,-1.60479,1.62062,-3.9,-2.9,0,12592,49.196,29.125,14328.3
2700641087,0.634765,2.223,95.5487,-0.228148,0.360201,0.889195,0.0560946,-2.9888,-0.023642,-3.30502,-1.67874,1.72766,-3.9,-2.9,0,12592,49.196,29.125,14328.3
2700741498,0.634765,2.223,95.5523,-0.223262,0.326269,0.89534,-0.00771736,-3.39889,-0.0215536,-3.17964,-1.77478,1.49102,0.8,2.3,0,12592,49.196,29.125,14328.3
2700841861,0.634765,2.223,95.5585,-0.194243,0.269852,0.908817,-0.0470588,-3.75151,-0.00907693,-2.65114,-1.6678,1.05826,0.8,2.3,0,12592,49.196,29.125,14328.3
2700942214,0.634765,2.223,95.5699,-0.0301721,0.0773417,0.942215,-0.069909,-4.04014,0.0416842,-1.88337,-1.28173,0.858976,0.8,2.3,0,12547,49.068,30.743,15085
2701042522,0.634765,2.223,95.5863,0.183907,-0.135485,0.929267,-0.122331,-3.95877,0.0757575,0.851567,1.19819,-0.0985328,0.8,2.3,0,12547,49.068,30.743,15085
2701142844,0.634765,2.223,95.5957,0.302837,-0.241413,0.902807,-0.209091,-3.60656,0.000995357,2.54716,2.81759,0.474914,0.8,2.3,0,12547,49.068,30.743,15085
2701243180,0.634765,2.223,95.6013,0.367037,-0.292968,0.883891,-0.316944,-3.12447,-0.0495679,3.14439,3.46601,1.90356,0.8,2.3,0,12547,49.068,30.743,15085
2701343502,0.634765,2.223,95.5809,0.393765,-0.311952,0.876005,-0.45603,-2.56695,-0.0672551,3.35898,3.87532,2.56993,0.8,2.3,0,12547,49.068,30.743,15085
2701443848,0.634765,2.223,95.5534,0.399752,-0.31602,0.873905,-0.591654,-1.97435,-0.0818492,3.46863,3.94505,2.83527,0.8,2.3,0,12547,49.068,30.743,15085
2701544221,0.634765,2.223,95.5312,0.392586,-0.312108,0.875764,-0.732125,-1.37001,-0.084023,3.38596,3.90538,3.08821,0.8,2.3,0,12547,49.068,30.743,15085
2701644559,0.634765,2.223,95.5092,0.380489,-0.305244,0.87931,-0.866645,-0.772252,-0.07723,3.35265,3.78023,2.92194,0.8,2.3,0,12547,49.068,30.743,15085
2701745012,0.634765,2.223,95.4863,0.360131,-0.292868,0.884428,-0.995944,-0.18427,-0.0641623,3.2392,3.74532,2.77604,3.3,1.8,0,12547,49.068,30.743,15085
2701845376,0.634765,2.223,95.4667,0.298902,-0.262761,0.896196,-1.11515,0.375639,-0.0496405,3.02857,3.425,2.54194,3.3,1.8,0,12547,49.068,30.743,15085
2701945732,0.634765,2.223,95.4569,0.188768,-0.303325,0.912705,-1.18751,0.841077,-0.00699297,2.7479,2.55185,1.87363,3.3,1.8,0,12547,49.1,29.096,14286.1
2702046084,0.634765,2.223,95.4518,0.0907725,-0.357357,0.926538,-1.10837,1.2706,-3.08082e-05,3.40723,1.41815,1.43672,3.3,1.8,0,12547,49.1,29.096,14286.1
2702146434,0.634765,2.223,95.4489,0.0270906,-0.394388,0.93325,-0.927311,1.66596,-0.0162733,3.70306,0.488578,1.51888,3.3,1.8,0,12547,49.1,29.096,14286.1
2702246797,0.634765,2.223,95.4523,-0.00300489,-0.408312,0.935294,-0.682537,2.05759,-0.0110808,3.88249,0.0459574,1.89732,3.3,1.8,0,12547,49.1,29.096,14286.1
2702347162,0.634765,2.223,95.4494,-0.01568,-0.37353,0.934338,-0.413021,2.44437,0.00370011,3.99765,-0.0682798,1.84288,3.3,1.8,0,12547,49.1,29.096,14286.1
2702447518,0.634765,2.223,95.4495,-0.0167702,-0.316118,0.933036,-0.17437,2.77219,0.0194662,3.4383,-0.114036,1.32922,3.3,1.8,0,12547,49.1,29.096,14286.1
2702547852,0.634765,2.223,95.4525,-0.0126753,-0.255798,0.933091,0.061581,3.0736,0.0321681,2.6868,-0.239226,0.791435,3.3,1.8,0,12547,49.1,29.096,14286.1
2702648247,0.634765,2.223,95.4575,-0.00521884,-0.200715,0.933797,0.181996,3.22979,0.0401825,2.15555,-0.159078,0.538061,3.3,1.8,0,12547,49.1,29.096,14286.1
2702748647,0.634765,2.223,95.4625,4.70333e-05,-0.156042,0.935126,0.307923,3.40729,0.0327142,1.49289,0.0436625,0.113854,0.2,0.6,0,12547,49.1,29.096,14286.1
2702849000,0.634765,2.223,95.4754,-0.00310804,-0.105313,0.935005,0.382236,3.52072,0.0461351,1.18837,0.0965615,0.422141,0.2,0.6,0,12547,49.1,29.096,14286.1
2702949378,0.634765,2.223,95.4988,-0.0754451,0.129353,0.932729,0.425836,3.54815,0.128186,-0.131206,-0.271973,0.586751,0.2,0.6,0,12547,49.145,29.861,14675.2
2703049754,0.634765,2.223,95.5272,-0.138252,0.303211,0.91759,0.35772,3.29207,0.0713134,-2.83989,-1.03759,-0.383014,0.2,0.6,0,12547,49.145,29.861,14675.2
2703150120,0.634765,2.223,95.5385,-0.175282,0.398407,0.902969,0.259465,2.90165,0.00911733,-3.74812,-1.43473,1.35748,0.2,0.6,0,12547,49.145,29.861,14675.2
2703250449,0.634765,2.223,95.5539,-0.174214,0.40741,0.901795,0.126255,2.41753,-0.0137408,-4.16368,-1.53059,2.0208,0.2,0.6,0,12547,49.145,29.861,14675.2
2703350796,0.634765,2.223,95.5838,-0.149879,0.366175,0.909311,0.00613347,1.96618,-0.0109524,-3.95344,-1.50769,1.44371,0.2,0.6,0,12547,49.145,29.861,14675.2
2703451235,0.634765,2.223,95.6112,-0.11925,0.303209,0.919074,-0.101908,1.57816,-0.0123186,-3.47558,-1.15336,1.01129,0.2,0.6,0,12547,49.145,29.861,14675.2
2703551631,0.634765,2.223,95.6187,-0.091574,0.232474,0.926877,-0.198888,1.27507,-0.0102805,-2.66332,-0.8573,0.550414,0.2,0.6,0,12547,49.145,29.861,14675.2
2703652068,0.634765,2.223,95.6141,-0.0702577,0.166834,0.932161,-0.262508,1.04762,-0.0228525,-1.9305,-0.705049,0.0729944,0.2,0.6,0,12547,49.145,29.861,14675.2
2703752537,0.634765,2.223,95.6106,-0.0530114,0.115049,0.935616,-0.311626,0.879838,-0.0386419,-1.36095,-0.458069,0.0265436,0.5,0.4,0,12547,49.145,29.861,14675.2
2703852867,0.634765,2.223,95.609,-0.0488758,0.0600261,0.936701,-0.349127,0.752181,-0.0311707,-1.00518,-0.301202,0.135362,0.5,0.4,0,12547,49.145,29.861,14675.2
2703953283,0.634765,2.223,95.5929,-0.0566033,0.00413758,0.938264,-0.328797,0.682752,-0.0260551,-0.014418,-0.441631,-0.0775019,0.5,0.4,0,12547,48.993,31.939,15647.9
2704053632,0.634765,2.223,95.5717,-0.0560885,-0.0217832,0.939276,-0.280852,0.643864,-0.0515955,0.249098,-0.479638,-0.0415742,0.5,0.4,0,12547,48.993,31.939,15647.9
2704153996,0.634765,2.223,95.546,-0.05134,-0.0334653,0.939819,-0.231042,0.63356,-0.0642103,0.457535,-0.323136,0.155423,0.5,0.4,0,12547,48.993,31.939,15647.9
2704254366,0.634765,2.223,95.5289,-0.0448216,-0.0354387,0.939824,-0.178885,0.61937,-0.0521107,0.410746,-0.468279,0.0814666,0.5,0.4,0,12547,48.993,31.939,15647.9
2704354705,0.634765,2.223,95.5094,-0.0365397,-0.0320767,0.9394,-0.122175,0.626369,-0.0433051,0.519931,-0.329544,0.166023,0.5,0.4,0,12547,48.993,31.939,15647.9
2704455018,0.634765,2.223,95.4929,-0.0294001,-0.0250264,0.939377,-0.0806636,0.633239,-0.0346961,0.443221,-0.209111,0.333816,0.5,0.4,0,12547,48.993,31.939,15647.9
2704555946,0.634765,2.223,95.483,-0.023495,-0.0175009,0.938954,-0.0526866,0.644201,-0.0195012,0.300205,-0.117683,0.260337,0.5,0.4,0,12547,48.993,31.939,15647.9
2704661308,0.634765,2.223,95.4817,-0.0213681,-0.0114545,0.938848,-0.0302062,0.651766,-0.0137935,0.211577,-0.0771903,0.0413715,0.5,0.4,0,12547,48.993,31.939,15647.9
2704761670,0.634765,2.223,95.4846,-0.0184918,-0.00709408,0.938761,-0.0141651,0.65488,-0.00111309,0.134669,-0.0888362,0.139693,3.7,4.4,0,12547,48.993,31.939,15647.9
2704861997,0.634765,2.223,95.4888,-0.0086657,-0.0110676,0.939318,-0.00185909,0.666104,0.0140128,0.13346,-0.0163113,0.0632067,3.7,4.4,0,12547,48.993,31.939,15647.9
2704962357,0.634765,2.223,95.4917,0.110712,-0.10387,0.933257,-0.00546435,0.689572,0.0435563,0.344309,0.392464,-0.145918,3.7,4.4,0,12535,49.159,31.488,15479.2
2705062727,0.634765,2.223,95.4914,0.232912,-0.188127,0.916339,-0.0651498,0.907393,-0.00911709,1.50588,1.96729,-0.0273641,3.7,4.4,0,12535,49.159,31.488,15479.2
2705163089,0.634765,2.223,95.4836,0.309502,-0.24082,0.901107,-0.165063,1.26275,-0.0467668,2.15815,2.7094,1.39539,3.7,4.4,0,12535,49.159,31.488,15479.2
2705263404,0.634765,2.223,95.4753,0.34726,-0.265985,0.892301,-0.287957,1.70182,-0.0395073,2.50561,3.22532,1.89124,3.7,4.4,0,12535,49.159,31.488,15479.2
2705363752,0.634765,2.223,95.4544,0.358601,-0.273948,0.889664,-0.418098,2.17367,-0.0399103,2.66672,3.40004,2.04294,3.7,4.4,0,12535,49.159,31.488,15479.2
2705464089,0.634765,2.223,95.4282,0.354873,-0.274535,0.889537,-0.559761,2.65766,-0.0333929,2.63985,3.39144,2.36419,3.7,4.4,0,12535,49.159,31.488,15479.2
2705564456,0.634765,2.223,95.4128,0.346444,-0.271637,0.890575,-0.687835,3.13287,-0.0131296,2.60429,3.28006,2.2607,3.7,4.4,0,12535,49.159,31.488,15479.2
2705664809,0.634765,2.223,95.403,0.335039,-0.267382,0.892197,-0.811045,3.58578,0.000880074,2.51327,3.12976,1.97039,3.7,4.4,0,12535,49.159,31.488,15479.2
2705765182,0.634765,2.223,95.4027,0.301645,-0.246524,0.899188,-0.923056,4.0223,0.0126109,2.40249,2.94316,1.9002,3.8,-1.3,0,12535,49.159,31.488,15479.2
2705865469,0.634765,2.223,95.4099,0.235148,-0.214709,0.912785,-1.01855,4.40378,0.0414722,2.1614,2.59663,1.27661,3.8,-1.3,0,12535,49.159,31.488,15479.2
2705965835,0.634765,2.223,95.4184,-0.0150108,-0.164263,0.94697,-1.07951,4.71876,0.0940757,1.82345,1.7549,1.38718,3.8,-1.3,0,12535,49.159,31.488,15479.2
2706066194,0.634765,2.223,95.4341,-0.273859,-0.105796,0.956216,-0.910897,4.76965,0.15965,1.05075,-1.61684,0.423127,3.8,-1.3,0,12535,49.218,26.873,13226.4
2706166543,0.634765,2.223,95.4617,-0.40633,-0.0766865,0.952593,-0.608889,4.632,0.0699924,0.533547,-3.5253,0.66103,3.8,-1.3,0,12535,49.218,26.873,13226.4
2706266886,0.634765,2.223,95.4788,-0.465615,-0.0569345,0.945613,-0.214335,4.40277,0.0429702,0.323902,-4.28492,2.09252,3.8,-1.3,0,12535,49.218,26.873,13226.4
2706367253,0.634765,2.223,95.4981,-0.483401,-0.0463274,0.940111,0.225396,4.129,0.0216296,0.321787,-4.76445,2.15221,3.8,-1.3,0,12535,49.218,26.873,13226.4
2706467609,0.634765,2.223,95.5131,-0.478999,-0.0424662,0.935999,0.750449,3.77846,0.00856373,0.153882,-4.7176,2.2318,3.8,-1.3,0,12535,49.218,26.873,13226.4
2706567962,0.634765,2.223,95.5114,-0.464345,-0.0471539,0.935485,1.16781,3.47911,-8.54395e-05,0.11545,-4.52297,2.22372,3.8,-1.3,0,12535,49.218,26.873,13226.4
2706668382,0.634765,2.223,95.5152,-0.443449,-0.0588741,0.937668,1.57101,3.18952,8.56072e-06,0.0990402,-4.37157,2.02798,3.8,-1.3,0,12535,49.218,26.873,13226.4
2706768798,0.634765,2.223,95.5295,-0.388735,-0.069454,0.939357,1.95378,2.93341,-0.000800874,0.224383,-3.89442,1.78643,-2.2,-1.3,0,12535,49.218,26.873,13226.4
2706869141,0.634765,2.223,95.5397,-0.309301,-0.0547787,0.937836,2.28835,2.72977,0.00981216,0.407663,-3.3241,1.45539,-2.2,-1.3,0,12535,49.218,26.873,13226.4
2706969511,0.634765,2.223,95.544,-0.188626,0.14188,0.92632,2.53454,2.54225,0.118914,-0.363268,-2.39506,1.21261,-2.2,-1.3,0,12535,49.218,26.873,13226.4
2707069883,0.634765,2.223,95.5563,-0.100366,0.309533,0.926483,2.48216,2.24,0.0480136,-2.94996,-1.06885,-0.378893,-2.2,-1.3,0,12535,49.236,27.674,13625.6
2707170146,0.634765,2.223,95.5608,-0.0583025,0.399157,0.927106,2.31083,1.88792,-0.0424965,-3.71601,-0.409858,1.35124,-2.2,-1.3,0,12535,49.236,27.674,13625.6
2707270516,0.634765,2.223,95.5655,-0.0427694,0.444057,0.926128,2.07193,1.47065,-0.0519148,-4.41904,-0.26961,1.61853,-2.2,-1.3,0,12535,49.236,27.674,13625.6
2707370864,0.634765,2.223,95.5884,-0.0429858,0.460862,0.924023,1.8037,1.04798,-0.0699062,-4.54889,-0.138305,1.95767,-2.2,-1.3,0,12535,49.236,27.674,13625.6
2707471207,0.634765,2.223,95.6072,-0.049967,0.46184,0.921043,1.52251,0.622106,-0.0719715,-4.49742,-0.142371,2.12819,-2.2,-1.3,0,12535,49.236,27.674,13625.6
2707571537,0.634765,2.223,95.6077,-0.0596231,0.45118,0.918458,1.24306,0.200635,-0.0605892,-4.34412,-0.146162,2.16597,-2.2,-1.3,0,12535,49.236,27.674,13625.6
2707671879,0.634765,2.223,95.606,-0.0727215,0.434785,0.917022,0.979175,-0.211963,-0.048524,-4.30655,-0.308471,1.82768,-2.2,-1.3,0,12535,49.236,27.674,13625.6
2707772415,0.634765,2.223,95.6188,-0.0851267,0.415433,0.91652,0.74598,-0.608358,-0.0493688,-3.98059,-0.473871,1.70785,4.6,-0.7,0,12535,49.236,27.674,13625.6
2707872815,0.634765,2.223,95.6231,-0.0856028,0.355878,0.920746,0.520191,-0.996596,-0.0405105,-3.97875,-0.503841,1.53171,4.6,-0.7,0,12535,49.236,27.674,13625.6
2707973199,0.634765,2.223,95.6173,-0.0419675,0.0672905,0.931792,0.345275,-1.297,-0.00687807,-2.56681,-0.386202,0.922028,4.6,-0.7,0,12535,49.236,27.674,13625.6
2708073576,0.634765,2.223,95.6148,0.00663658,-0.248439,0.934892,0.370222,-1.22816,0.00712644,1.44443,0.194414,-0.0117524,4.6,-0.7,0,12535,49.236,29.057,14306.5
2708173937,0.634765,2.223,95.6129,0.0308985,-0.410607,0.934429,0.52163,-0.907111,-0.0741288,3.66596,0.558896,0.976696,4.6,-0.7,0,12535,49.236,29.057,14306.5
2708274302,0.634765,2.223,95.6023,0.0354306,-0.482542,0.935667,0.73921,-0.469058,-0.104256,4.51512,0.672621,2.41867,4.6,-0.7,0,12535,49.236,29.057,14306.5
2708374662,0.634765,2.223,95.5633,0.0267107,-0.500502,0.93907,0.995888,0.0239815,-0.101083,4.74719,0.624593,2.98419,4.6,-0.7,0,12535,49.236,29.057,14306.5
2708475058,0.634765,2.223,95.5272,0.0116623,-0.49324,0.942533,1.26811,0.524281,-0.0859834,4.85938,0.555647,2.96142,4.6,-0.7,0,12535,49.236,29.057,14306.5
2708575401,0.634765,2.223,95.5104,-0.00278901,-0.475199,0.945353,1.54179,0.998381,-0.0756411,4.57857,0.414549,2.78573,4.6,-0.7,0,12535,49.236,29.057,14306.5
2708677427,0.634765,2.223,95.4956,-0.0207644,-0.456533,0.947628,1.81685,1.45261,-0.0445364,4.40508,0.300989,2.54813,4.6,-0.7,0,12535,49.236,29.057,14306.5
2708783151,0.634765,2.223,95.4874,-0.0391727,-0.433772,0.949606,2.09883,1.86725,-0.0350478,4.12573,0.0709702,2.3944,-4,-3.4,0,12535,49.236,29.057,14306.5
2708883508,0.634765,2.223,95.4804,-0.0513892,-0.365033,0.94979,2.38086,2.24693,-0.00982714,3.79682,-0.133608,1.94014,-4,-3.4,0,12535,49.236,29.057,14306.5
2708983863,0.634765,2.223,95.4875,-0.0809136,-0.118502,0.953095,2.62842,2.55382,0.075591,2.97796,-0.239041,1.58331,-4,-3.4,0,12535,49.236,29.057,14306.5
2709084240,0.634765,2.223,95.5046,-0.126367,0.18992,0.932464,2.68798,2.53123,0.123525,-0.737585,-0.817481,-0.0883361,-4,-3.4,0,12535,49.236,29.057,14306.5
2709184586,0.634765,2.223,95.5415,-0.157422,0.346298,0.911521,2.60446,2.25538,0.0380415,-3.23034,-1.14742,0.184646,-4,-3.4,0,12535,49.236,29.057,14306.5
2709284931,0.634765,2.223,95.5738,-0.173592,0.426035,0.898084,2.4776,1.87286,-0.0209796,-4.02113,-1.24108,1.64653,-4,-3.4,0,12535,49.236,29.057,14306.5
2709385286,0.634766,2.223,95.622,-0.178658,0.455633,0.891672,2.31858,1.42146,-0.030801,-4.36167,-1.33761,2.05321,-4,-3.4,0,12535,49.236,29.057,14306.5
2709485612,0.634766,2.223,95.6691,-0.174616,0.457189,0.890117,2.14805,0.962881,-0.0485088,-4.42373,-1.33142,1.94588,-4,-3.4,0,12535,49.236,29.057,14306.5
2709585933,0.634766,2.223,95.663,-0.169802,0.445172,0.891859,1.97641,0.517667,-0.0547366,-4.20749,-1.15601,2.07081,-4,-3.4,0,12535,49.236,29.057,14306.5
2709686321,0.634766,2.223,95.6476,-0.170388,0.430933,0.893888,1.79395,0.0635191,-0.0517506,-4.17637,-1.11374,2.15049,-4,-3.4,0,12535,49.102,29.433,14452.2
2709786705,0.634766,2.223,95.6537,-0.172331,0.413702,0.897071,1.61828,-0.371145,-0.0559898,-4.07058,-1.05485,1.89227,3.3,-2.8,0,12535,49.102,29.433,14452.2
2709887048,0.634766,2.223,95.662,-0.171305,0.3806,0.901069,1.46213,-0.801673,-0.0545855,-3.85417,-1.16693,1.60664,3.3,-2.8,0,12535,49.102,29.433,14452.2
2709987406,0.634766,2.223,95.65,-0.154017,0.156884,0.912777,1.30593,-1.22579,-0.0134861,-3.72816,-1.23055,1.18734,3.3,-2.8,0,12535,49.102,29.433,14452.2
2710087764,0.634766,2.223,95.64,-0.122336,-0.173865,0.939294,1.32443,-1.37189,0.0145266,-0.188941,-0.976505,0.195712,3.3,-2.8,0,12535,49.102,29.433,14452.2
2710188137,0.634766,2.223,95.6345,-0.108337,-0.365117,0.96085,1.57543,-1.15848,-0.0810098,3.25427,-0.623202,0.401914,3.3,-2.8,0,12535,49.102,29.433,14452.2
2710288474,0.634766,2.223,95.616,-0.116668,-0.450065,0.973371,1.87187,-0.853438,-0.128778,4.10695,-0.481012,2.05997,3.3,-2.8,0,12535,49.102,29.433,14452.2
2710388837,0.634766,2.223,95.583,-0.126708,-0.469432,0.981209,2.22616,-0.487789,-0.12904,4.42134,-0.556434,2.74826,3.3,-2.8,0,12535,49.102,29.433,14452.2
2710489162,0.634766,2.223,95.5439,-0.148936,-0.452744,0.984391,2.58972,-0.125845,-0.106274,4.39997,-0.65193,2.66395,3.3,-2.8,0,12535,49.102,29.433,14452.2
2710590987,0.634766,2.223,95.4895,-0.15783,-0.39319,0.979474,2.96057,0.202259,-0.0882337,4.10097,-0.875278,2.61542,3.3,-2.8,0,12502,49.096,29.429,14448.5
2710691826,0.634766,2.223,95.4381,-0.15066,-0.323507,0.969779,3.27998,0.449097,-0.0475649,3.33987,-0.92646,1.79818,3.3,-2.8,0,12502,49.096,29.429,14448.5
2710792246,0.634766,2.223,95.4254,-0.13854,-0.242993,0.957555,3.53428,0.626731,-0.0132425,2.47285,-0.871639,1.22416,-0.2,0.7,0,12502,49.096,29.429,14448.5
2710892592,0.634766,2.223,95.4222,-0.112506,-0.166856,0.948195,3.74269,0.758662,0.0101281,1.89741,-0.781184,1.26038,-0.2,0.7,0,12502,49.096,29.429,14448.5
2710992913,0.634766,2.223,95.4353,0.0606877,0.0542662,0.937054,3.85444,0.838882,0.0846934,0.67095,-0.169695,0.674279,-0.2,0.7,0,12502,49.096,29.429,14448.5
2711093280,0.634766,2.223,95.4657,0.217744,0.212334,0.95928,3.60818,0.825925,0.0904397,-2.01345,2.1236,-0.0207939,-0.2,0.7,0,12502,49.096,29.429,14448.5
2711193632,0.634766,2.223,95.4899,0.31562,0.30058,0.985463,3.20843,0.799101,-0.0101264,-2.90389,3.07865,1.02595,-0.2,0.7,0,12502,49.096,29.429,14448.5
2711293968,0.634766,2.223,95.5097,0.359738,0.340524,1.00171,2.68497,0.752163,-0.0380122,-3.30895,3.51097,2.46257,-0.2,0.7,0,12502,49.096,29.429,14448.5
2711394327,0.634766,2.223,95.5262,0.379109,0.358373,1.00974,2.11441,0.692184,-0.0504515,-3.67621,3.82271,2.32077,-0.2,0.7,0,12502,49.096,29.429,14448.5
2711494687,0.634766,2.223,95.5459,0.357942,0.356739,1.0077,1.52202,0.636431,-0.0711855,-3.65951,3.89403,2.6634,-0.2,0.7,0,12502,49.096,29.429,14448.5
2711595018,0.634766,2.223,95.5349,0.283355,0.31097,0.987938,0.949816,0.552633,-0.038256,-3.52804,3.44491,2.68505,-0.2,0.7,0,12502,49.096,29.429,14448.5
2711695330,0.634766,2.223,95.5222,0.202275,0.24796,0.969538,0.503973,0.47424,-0.0133393,-2.92594,2.70051,1.51724,-0.2,0.7,0,12502,49.154,28.557,14036.9
2711795707,0.634766,2.223,95.5155,0.133775,0.17503,0.954664,0.189155,0.403618,-0.00436076,-2.21714,1.8679,0.727716,-2.1,3.1,0,12502,49.154,28.557,14036.9
2711896081,0.634766,2.223,95.5066,0.106566,0.13608,0.948597,-0.0353713,0.357731,0.0165442,-1.29922,1.18651,1.02412,-2.1,3.1,0,12502,49.154,28.557,14036.9
2711996404,0.634766,2.223,95.4984,0.167457,0.167475,0.95524,-0.229655,0.330588,0.0350312,-1.29243,1.30491,0.26196,-2.1,3.1,0,12502,49.154,28.557,14036.9
2712096767,0.634766,2.223,95.4954,0.23803,0.200701,0.962462,-0.51845,0.302807,-0.00773568,-1.77998,2.06727,0.532024,-2.1,3.1,0,12502,49.154,28.557,14036.9
2712197114,0.634766,2.223,95.4998,0.285951,0.223136,0.967995,-0.878971,0.285818,-0.021484,-1.97421,2.52406,1.29619,-2.1,3.1,0,12502,49.154,28.557,14036.9
2712297465,0.634766,2.223,95.5015,0.309477,0.236026,0.971126,-1.28573,0.274112,-0.00396729,-2.19486,2.85114,1.52851,-2.1,3.1,0,12502,49.154,28.557,14036.9
2712397847,0.634766,2.223,95.5126,0.316723,0.240773,0.971495,-1.70274,0.276155,-0.00654468,-2.20638,2.9989,1.40963,-2.1,3.1,0,12502,49.154,28.557,14036.9
2712498181,0.634766,2.223,95.5205,0.295367,0.228162,0.966529,-2.12575,0.268856,-0.00264972,-2.21978,3.00333,1.49393,-2.1,3.1,0,12502,49.154,28.557,14036.9
2712598552,0.634766,2.223,95.5264,0.252264,0.202448,0.958877,-2.49091,0.275397,0.00555542,-1.85763,2.65249,1.09088,-2.1,3.1,0,12502,49.154,28.557,14036.9
2712698890,0.634766,2.223,95.5286,0.205448,0.173695,0.952388,-2.78809,0.273196,0.00211318,-1.59202,2.15299,0.757456,-2.1,3.1,0,12458,49.076,28.588,14029.8
2712799270,0.634766,2.223,95.5301,0.163361,0.146438,0.947981,-3.02714,0.275974,0.00350187,-1.25283,1.77666,0.670406,-0.9,-2.9,0,12458,49.076,28.588,14029.8
2712899634,0.634766,2.223,95.5319,0.103515,0.110519,0.942984,-3.21213,0.269505,0.00182537,-1.07794,1.39435,0.458993,-0.9,-2.9,0,12458,49.076,28.588,14029.8
2712999938,0.634766,2.223,95.5299,-0.134137,0.0168112,0.932405,-3.31219,0.247789,0.0709473,-0.526725,0.322289,0.743332,-0.9,-2.9,0,12458,49.076,28.588,14029.8
2713100329,0.634766,2.223,95.5416,-0.346228,-0.0449373,0.945807,-3.09299,0.156101,0.0589433,0.637464,-2.75485,-0.159348,-0.9,-2.9,0,12458,49.076,28.588,14029.8
2713200685,0.634766,2.223,95.5543,-0.455123,-0.0711898,0.959436,-2.72139,0.00232375,-0.0431345,0.927711,-3.89282,1.07234,-0.9,-2.9,0,12458,49.076,28.588,14029.8
2713301404,0.634766,2.223,95.5607,-0.500663,-0.07657,0.96559,-2.2326,-0.200568,-0.0708853,1.11116,-4.54835,2.48598,-0.9,-2.9,0,12458,49.076,28.588,14029.8
2713402942,0.634766,2.223,95.5601,-0.504209,-0.0691941,0.964714,-1.70406,-0.429807,-0.061412,1.0732,-4.7637,2.83061,-0.9,-2.9,0,12458,49.076,28.588,14029.8
2713503316,0.634766,2.223,95.5594,-0.487547,-0.0552705,0.959867,-1.19616,-0.66435,-0.0515971,0.869405,-4.6414,2.56062,-0.9,-2.9,0,12458,49.076,28.588,14029.8
2713603687,0.634766,2.223,95.5489,-0.469647,-0.0405544,0.954524,-0.714301,-0.902189,-0.0439056,0.697931,-4.3829,2.55241,-0.9,-2.9,0,12458,49.076,28.588,14029.8
2713704107,0.634766,2.223,95.5401,-0.452542,-0.0251009,0.949408,-0.262315,-1.13223,-0.0372042,0.595881,-4.15256,2.30312,-0.9,-2.9,0,12458,49.092,27.854,13674.1
2713804425,0.634766,2.223,95.5367,-0.431793,-0.00997721,0.944857,0.16092,-1.35593,-0.0323284,0.459831,-4.05977,1.79467,-2.2,1.1,0,12458,49.092,27.854,13674.1
2713904747,0.634766,2.223,95.5303,-0.367531,0.00518347,0.941096,0.556628,-1.57924,-0.0215493,0.350521,-3.64338,1.80775,-2.2,1.1,0,12458,49.092,27.854,13674.1
2714005098,0.634766,2.223,95.5239,-0.124323,0.0697543,0.944522,0.872621,-1.76581,0.0510996,0.14526,-2.86667,0.930254,-2.2,1.1,0,12458,49.092,27.854,13674.1
2714105456,0.634766,2.223,95.5269,0.190247,0.135017,0.960016,0.871143,-1.81637,0.0424144,-0.708213,0.523901,0.0862047,-2.2,1.1,0,12458,49.092,27.854,13674.1
2714205811,0.634766,2.223,95.5277,0.3612,0.170099,0.969529,0.57406,-1.7379,-0.0244316,-1.27779,3.30197,0.517517,-2.2,1.1,0,12458,49.092,27.854,13674.1
2714306165,0.634766,2.223,95.5173,0.43449,0.19174,0.974769,0.155286,-1.6061,-0.0819593,-1.40011,4.03193,2.01405,-2.2,1.1,0,12458,49.092,27.854,13674.1
2714406522,0.634766,2.223,95.5228,0.435924,0.198997,0.972192,-0.344092,-1.44836,-0.0799583,-1.62167,4.49827,2.44931,-2.2,1.1,0,12458,49.092,27.854,13674.1
2714506864,0.634766,2.223,95.5362,0.366292,0.186226,0.961107,-0.849086,-1.29994,-0.0451164,-1.6397,4.28972,2.4848,-2.2,1.1,0,12458,49.092,27.854,13674.1
2714607212,0.634766,2.223,95.5169,0.279439,0.165154,0.951613,-1.25978,-1.19482,-0.0120348,-1.51735,3.47938,1.53281,-2.2,1.1,0,12458,49.092,27.854,13674.1
2714707517,0.634766,2.223,95.5036,0.202874,0.14527,0.947421,-1.5633,-1.1252,0.000195401,-1.22117,2.61423,0.780922,-2.2,1.1,0,12414,49.104,26.93,13223.7
2714807866,0.634766,2.223,95.52,0.13905,0.129663,0.945441,-1.83964,-1.08219,0.0171362,-1.02403,1.71915,0.472141,-2.4,-4.5,0,12414,49.104,26.93,13223.7
2714908300,0.634766,2.223,95.5372,0.0762599,0.113598,0.944428,-2.00628,-1.07152,0.0266703,-0.838233,1.14924,0.593896,-2.4,-4.5,0,12414,49.104,26.93,13223.7
2715008699,0.634766,2.223,95.5471,-0.121703,0.0818066,0.931986,-2.09231,-1.10039,0.0891137,-0.607056,-0.119882,0.120407,-2.4,-4.5,0,12414,49.104,26.93,13223.7
2715109058,0.634766,2.223,95.5615,-0.310826,0.0554458,0.928829,-1.95367,-1.23181,0.0230995,-0.233641,-2.38492,-0.161887,-2.4,-4.5,0,12414,49.104,26.93,13223.7
2715209427,0.634766,2.223,95.5709,-0.420974,0.0439542,0.930332,-1.69482,-1.44079,-0.0448316,-0.105966,-3.50885,1.04125,-2.4,-4.5,0,12414,49.104,26.93,13223.7
2715310388,0.634766,2.223,95.57,-0.466051,0.039771,0.931957,-1.3404,-1.69892,-0.0704287,0.0638812,-4.0924,2.06561,-2.4,-4.5,0,12414,49.104,26.93,13223.7
2715411527,0.634766,2.223,95.5654,-0.474121,0.0398832,0.932204,-0.949366,-1.99119,-0.0610824,-0.00519329,-4.40464,2.23282,-2.4,-4.5,0,12414,49.104,26.93,13223.7
2715511938,0.634766,2.223,95.5608,-0.459527,0.0420362,0.932223,-0.562393,-2.27585,-0.0481567,0.0362128,-4.26267,2.26449,-2.4,-4.5,0,12414,49.104,26.93,13223.7
2715612369,0.634766,2.223,95.5413,-0.442111,0.0459894,0.931226,-0.200719,-2.55063,-0.0428792,-0.0603057,-4.01043,1.92873,-2.4,-4.5,0,12414,49.104,26.93,13223.7
2715712768,0.634766,2.223,95.5182,-0.424956,0.0534204,0.929147,0.147002,-2.80528,-0.0438316,-0.0571897,-3.75738,1.88797,-2.4,-4.5,0,12414,49.061,28.188,13829.3
2715813383,0.634766,2.223,95.5091,-0.411165,0.0618171,0.926598,0.463821,-3.06015,-0.0311317,-0.180679,-3.49,1.71435,3.2,0,0,12414,49.061,28.188,13829.3
2715914757,0.634766,2.223,95.505,-0.381206,0.0592902,0.927169,0.758616,-3.31525,-0.0299701,-0.322779,-3.36167,1.45871,3.2,0,0,12414,49.061,28.188,13829.3
2716015166,0.634766,2.223,95.5007,-0.189099,-0.0807096,0.931853,1.05014,-3.55411,0.078775,-0.0869259,-2.91965,1.58908,3.2,0,0,12414,49.061,28.188,13829.3
2716115640,0.634766,2.223,95.5084,0.0691193,-0.269081,0.91629,1.21924,-3.44581,0.141086,1.92822,-0.123319,1.10615,3.2,0,0,12414,49.061,28.188,13829.3
2716215960,0.634766,2.223,95.526,0.222618,-0.371412,0.892754,1.28362,-3.03445,0.113158,3.7802,2.25064,0.284135,3.2,0,0,12414,49.061,28.188,13829.3
2716316386,0.634766,2.223,95.5414,0.281737,-0.407656,0.881769,1.30674,-2.5568,-0.0471826,3.92692,2.76268,1.41379,3.2,0,0,12414,49.061,28.188,13829.3
2716416702,0.634766,2.223,95.5421,0.299822,-0.410133,0.88192,1.31485,-1.9735,-0.0973614,4.11975,3.12113,2.72768,3.2,0,0,12414,49.061,28.188,13829.3
2716517051,0.634766,2.223,95.5289,0.288211,-0.396829,0.88939,1.29656,-1.3859,-0.117903,3.86363,3.12459,2.71387,3.2,0,0,12414,49.061,28.188,13829.3
2716617382,0.634766,2.223,95.5003,0.267244,-0.385947,0.896364,1.28458,-0.814081,-0.111346,3.85058,2.99615,2.71681,3.2,0,0,12414,49.061,28.188,13829.3
2716717696,0.634766,2.223,95.4721,0.246031,-0.381783,0.901461,1.28605,-0.25154,-0.0927132,3.79882,2.79287,2.69227,3.2,0,0,12414,49.007,29.498,14456.1
2716820618,0.634766,2.223,95.447,0.218616,-0.378151,0.906609,1.28803,0.286268,-0.0743499,3.67332,2.63306,2.32954,-0.6,-1.9,0,12414,49.007,29.498,14456.1
2716921929,0.634766,2.223,95.4291,0.171879,-0.343382,0.916579,1.31322,0.813119,-0.0468641,3.81484,2.39089,2.14135,-0.6,-1.9,0,12414,49.007,29.498,14456.1
2717022291,0.634766,2.223,95.4328,0.0326203,-0.100526,0.943632,1.36077,1.26209,0.0400362,2.95803,1.72021,1.74936,-0.6,-1.9,0,12414,49.007,29.498,14456.1
2717122599,0.634766,2.223,95.4438,-0.12778,0.181559,0.92884,1.33263,1.28279,0.0997005,-0.696969,-0.148837,-0.202429,-0.6,-1.9,0,12414,49.007,29.498,14456.1
2717222939,0.634766,2.223,95.4562,-0.232236,0.323935,0.898928,1.27995,1.00541,0.0252067,-2.72199,-1.51531,0.759038,-0.6,-1.9,0,12414,49.007,29.498,14456.1
2717323311,0.634766,2.223,95.4617,-0.289759,0.387383,0.877796,1.21306,0.582086,0.00198065,-3.6595,-2.01177,1.94772,-0.6,-1.9,0,12414,49.007,29.498,14456.1
2717425105,0.634766,2.223,95.4879,-0.286001,0.367491,0.881039,1.15077,0.0852111,-0.00449528,-3.88505,-2.26659,2.54422,-0.6,-1.9,0,12414,49.007,29.498,14456.1
2717529284,0.634766,2.223,95.516,-0.246797,0.305691,0.895944,1.10858,-0.368381,0.0208463,-3.40553,-2.20526,1.77865,-0.6,-1.9,0,12414,49.007,29.498,14456.1
2717629669,0.634766,2.223,95.5113,-0.205923,0.23892,0.910934,1.07611,-0.711989,0.0350709,-2.6868,-1.72074,1.11161,-0.6,-1.9,0,12414,49.007,29.498,14456.1
2717730024,0.634766,2.223,95.5316,-0.172305,0.182306,0.92144,1.05047,-0.974591,0.0253438,-2.01182,-1.36084,0.825813,-0.6,-1.9,0,12414,49.007,29.498,14456.1
2717830418,0.634766,2.223,95.5519,-0.142988,0.135419,0.928613,1.03966,-1.21286,0.0210656,-1.40888,-1.04721,0.247768,3.4,4.6,0,12414,49.128,28.422,13963.2
2717930722,0.634766,2.223,95.5468,-0.104785,0.0851639,0.934451,1.03542,-1.36109,0.0216468,-0.970028,-0.828492,0.479714,3.4,4.6,0,12414,49.128,28.422,13963.2
2718031122,0.634766,2.223,95.5433,0.0840034,-0.055993,0.938332,1.0318,-1.41918,0.0576912,0.0681955,0.0643702,0.134879,3.4,4.6,0,12414,49.128,28.422,13963.2
2718132458,0.634766,2.223,95.5476,0.272156,-0.166138,0.916796,0.905904,-1.18223,0.0146365,1.48335,2.65291,0.101715,3.4,4.6,0,12414,49.128,28.422,13963.2
2718232860,0.634766,2.223,95.54,0.361409,-0.215886,0.899672,0.734072,-0.835084,-0.0502587,2.00262,3.48596,1.17706,3.4,4.6,0,12414,49.128,28.422,13963.2
2718333214,0.634766,2.223,95.5034,0.402519,-0.237943,0.890482,0.53271,-0.38346,-0.0949909,2.37724,3.95107,2.32806,3.4,4.6,0,12414,49.128,28.422,13963.2
2718433564,0.634766,2.223,95.4704,0.410752,-0.238386,0.890848,0.310899,0.111577,-0.0917522,2.39837,4.06786,2.73808,3.4,4.6,0,12414,49.128,28.422,13963.2
2718533925,0.634766,2.223,95.4575,0.39997,-0.232617,0.894315,0.0766788,0.606124,-0.068883,2.3061,4.08124,2.74589,3.4,4.6,0,12414,49.128,28.422,13963.2
2718634280,0.634766,2.223,95.4478,0.384361,-0.223781,0.898701,-0.140484,1.08463,-0.0412772,2.30804,3.95985,2.32106,3.4,4.6,0,12414,49.128,28.422,13963.2
2718734693,0.634766,2.223,95.4433,0.36956,-0.214502,0.902444,-0.34707,1.53714,-0.0318061,2.13498,3.78391,2.21433,3.4,4.6,0,12414,49.128,28.422,13963.2
2718835121,0.634766,2.223,95.4338,0.351968,-0.208877,0.905651,-0.547335,1.97363,-0.0149104,2.00297,3.55622,2.10596,0.3,-1.2,0,12414,48.993,30.386,14887
2718936222,0.634766,2.223,95.4368,0.308189,-0.188616,0.914744,-0.739422,2.39524,0.00526562,1.9856,3.45072,2.03706,0.3,-1.2,0,12414,48.993,30.386,14887
2719036585,0.634766,2.223,95.4461,0.0672823,-0.0615874,0.944035,-0.881283,2.75467,0.0746696,1.62691,2.57244,1.45195,0.3,-1.2,0,12414,48.993,30.386,14887
2719136933,0.634766,2.223,95.4529,-0.226046,0.0852323,0.931438,-0.872132,2.74663,0.122858,-0.37743,-0.715004,0.0222354,0.3,-1.2,0,12414,48.993,30.386,14887
2719237275,0.634766,2.223,95.4581,-0.386099,0.154251,0.908382,-0.726099,2.47694,0.0505916,-1.43775,-3.01754,0.662581,0.3,-1.2,0,12414,48.993,30.386,14887
2719337625,0.634766,2.223,95.5004,-0.458801,0.188343,0.892024,-0.503969,2.08072,0.0121447,-1.88263,-4.00469,1.92566,0.3,-1.2,0,12414,48.993,30.386,14887
2719437974,0.634766,2.223,95.5453,-0.476362,0.198661,0.885621,-0.252662,1.62257,0.0103332,-2.02668,-4.23384,2.42688,0.3,-1.2,0,12414,48.993,30.386,14887
2719538311,0.634766,2.223,95.5408,-0.448109,0.190451,0.888297,-0.00271359,1.15819,0.00243986,-2.05397,-4.33589,2.18242,0.3,-1.2,0,12414,48.993,30.386,14887
2719638657,0.634766,2.223,95.533,-0.381466,0.163202,0.900097,0.21539,0.744837,0.01124,-1.74642,-3.66706,2.047,0.3,-1.2,0,12414,48.993,30.386,14887
2719739028,0.634766,2.223,95.5496,-0.317214,0.128884,0.913162,0.400829,0.398789,0.0226016,-1.5088,-3.21278,1.10895,0.3,-1.2,0,12414,48.993,30.386,14887
2719839457,0.634766,2.223,95.5609,-0.252673,0.0926106,0.9237,0.549347,0.134833,0.0212378,-1.06347,-2.49837,0.691393,-0.1,-1.1,0,12414,49.031,28.284,13867.9
2719939817,0.634766,2.223,95.5485,-0.190676,0.0809811,0.929844,0.671308,-0.0607848,0.0136938,-0.62092,-1.82183,0.635162,-0.1,-1.1,0,12414,49.031,28.284,13867.9
2720040217,0.634766,2.223,95.5278,-0.135764,0.0909698,0.933302,0.742422,-0.229787,0.014196,-0.939726,-1.23242,0.0939944,-0.1,-1.1,0,12414,49.031,28.284,13867.9
2720140600,0.634766,2.223,95.5198,-0.102188,0.0823137,0.936397,0.773068,-0.362354,-0.0155678,-0.756215,-0.759638,-0.0173762,-0.1,-1.1,0,12414,49.031,28.284,13867.9
2720240956,0.634766,2.223,95.505,-0.0796933,0.0669378,0.938987,0.788104,-0.468363,-0.0405539,-0.660674,-0.462624,0.218961,-0.1,-1.1,0,12414,49.031,28.284,13867.9
2720341356,0.634766,2.223,95.4898,-0.0647969,0.0508954,0.940695,0.799543,-0.544261,-0.0355025,-0.381621,-0.305229,0.144754,-0.1,-1.1,0,12414,49.031,28.284,13867.9
2720441719,0.634766,2.223,95.4808,-0.0539158,0.0397125,0.941366,0.79661,-0.594169,-0.0242324,-0.322431,-0.115004,0.0734465,-0.1,-1.1,0,12414,49.031,28.284,13867.9
2720542067,0.634766,2.223,95.4829,-0.0486391,0.0305258,0.9419,0.800149,-0.626008,-0.00997002,-0.175782,-0.0982099,0.0507746,-0.1,-1.1,0,12414,49.031,28.284,13867.9
2720642418,0.634766,2.223,95.4852,-0.0458527,0.0249281,0.94202,0.797311,-0.650151,-0.00626768,-0.190058,-0.05232,-0.0493067,-0.1,-1.1,0,12414,49.031,28.284,13867.9
2720742753,0.634766,2.223,95.4893,-0.0455105,0.0204978,0.942169,0.794977,-0.669377,0.00283924,-0.131248,-0.0412356,0.0358249,-0.1,-1.1,0,12414,49.031,28.284,13867.9
2720843148,0.634766,2.223,95.4942,-0.0460842,0.0181076,0.942198,0.789643,-0.673657,0.00150855,-0.0699761,0.000301464,-0.0574112,4.9,-4.8,0,12414,48.985,30.293,14839
2720943513,0.634766,2.223,95.4984,-0.0524636,0.00443537,0.940918,0.79411,-0.67728,-6.78087e-05,0.049643,-0.074924,-0.0330059,4.9,-4.8,0,12414,48.985,30.293,14839
2721043868,0.634766,2.223,95.505,-0.119966,-0.127957,0.946278,0.803063,-0.668535,0.0288032,0.447615,-0.170861,0.195388,4.9,-4.8,0,12414,48.985,30.293,14839
2721144246,0.634766,2.223,95.507,-0.192108,-0.246516,0.965553,0.985341,-0.565028,-0.0107282,2.03874,-1.01791,-0.0182084,4.9,-4.8,0,12414,48.985,30.293,14839
2721245346,0.634766,2.223,95.5042,-0.245874,-0.318145,0.983444,1.28765,-0.420547,-0.037458,2.8127,-1.50567,1.44555,4.9,-4.8,0,12414,48.985,30.293,14839
2721348798,0.634766,2.223,95.4891,-0.270245,-0.346771,0.99286,1.75554,-0.19604,-0.0248191,3.36862,-1.83998,1.96998,4.9,-4.8,0,12414,48.985,30.293,14839
2721449179,0.634766,2.223,95.4724,-0.283081,-0.348339,0.994753,2.16812,-0.00386912,-0.0119429,3.47869,-1.94659,2.05107,4.9,-4.8,0,12414,48.985,30.293,14839
2721549605,0.634766,2.223,95.4576,-0.290967,-0.337944,0.99284,2.58253,0.170643,-0.00281088,3.41334,-2.06968,1.93222,4.9,-4.8,0,12414,48.985,30.293,14839
2721649977,0.634766,2.223,95.4396,-0.296533,-0.325758,0.989765,2.98567,0.328347,-0.0031202,3.15741,-2.02615,1.93357,4.9,-4.8,0,12414,48.985,30.293,14839
2721750360,0.634766,2.223,95.4229,-0.303652,-0.312815,0.986779,3.37986,0.460079,-0.00707409,2.92739,-2.07465,1.97117,4.9,-4.8,0,12414,48.985,30.293,14839
2721850816,0.634766,2.223,95.4127,-0.306608,-0.298324,0.982939,3.77857,0.574591,0.00134476,2.82364,-2.21746,1.69431,-0.7,-2.4,0,12403,49.063,26.002,12757.4
2721951126,0.634766,2.223,95.4067,-0.294373,-0.251358,0.975736,4.17581,0.68271,-1.4808e-05,2.84861,-2.30379,1.65447,-0.7,-2.4,0,12403,49.063,26.002,12757.4
2722051490,0.634767,2.223,95.4144,-0.183222,-0.00364632,0.948525,4.52781,0.744453,0.11635,1.85361,-1.92605,2.00022,-0.7,-2.4,0,12403,49.063,26.002,12757.4
2722151835,0.634767,2.223,95.4401,-0.0437736,0.261877,0.936516,4.50654,0.60757,0.157259,-1.86495,-0.385024,-0.166213,-0.7,-2.4,0,12403,49.063,26.002,12757.4
2722252240,0.634767,2.223,95.4598,0.0342287,0.392048,0.942043,4.25784,0.376132,0.0799595,-3.38368,0.702224,1.12993,-0.7,-2.4,0,12403,49.063,26.002,12757.4
2722352575,0.634767,2.223,95.5064,0.0688256,0.448281,0.94582,3.90267,0.100047,0.0512784,-4.20602,1.18772,1.38395,-0.7,-2.4,0,12403,49.063,26.002,12757.4
2722452939,0.634767,2.223,95.55,0.0805967,0.465906,0.943869,3.52136,-0.194401,0.0159686,-4.4581,1.23683,1.64584,-0.7,-2.4,0,12403,49.063,26.002,12757.4
2722553223,0.634767,2.223,95.5459,0.0769692,0.455081,0.938027,3.1329,-0.470215,-0.0179493,-4.17025,1.35491,1.96701,-0.7,-2.4,0,12403,49.063,26.002,12757.4
2722653577,0.634767,2.223,95.5409,0.0541595,0.400135,0.930537,2.7629,-0.745417,-0.0246461,-3.95655,1.11582,1.69066,-0.7,-2.4,0,12403,49.063,26.002,12757.4
2722754298,0.634767,2.223,95.5403,0.0226874,0.331092,0.926327,2.45318,-0.976459,-0.021712,-3.29703,0.918104,1.2459,-0.7,-2.4,0,12403,49.063,26.002,12757.4
2722855019,0.634767,2.223,95.5386,-0.0122092,0.258269,0.926116,2.21419,-1.16435,-0.0185531,-2.53815,0.630262,0.736954,0.6,-1.2,0,12403,49.063,26.002,12757.4
2722956402,0.634767,2.223,95.5321,-0.0151645,0.17121,0.932552,2.05096,-1.32066,-0.00235905,-1.99728,0.239084,0.705181,0.6,-1.2,0,12403,49.217,25.577,12588.2
2723056742,0.634767,2.223,95.5307,0.0596457,0.0232765,0.94058,1.9202,-1.38492,0.0396163,-0.665791,0.748423,0.266141,0.6,-1.2,0,12403,49.217,25.577,12588.2
2723157093,0.634767,2.223,95.5314,0.112952,-0.0667017,0.934717,1.81396,-1.27102,-0.00235367,0.622286,1.43569,-0.375489,0.6,-1.2,0,12403,49.217,25.577,12588.2
2723257474,0.634767,2.223,95.5222,0.134601,-0.109951,0.929355,1.71578,-1.07882,-0.0404304,1.27156,1.78507,0.351417,0.6,-1.2,0,12403,49.217,25.577,12588.2
2723357812,0.634767,2.223,95.5086,0.126427,-0.113907,0.928171,1.63254,-0.848139,-0.0443183,1.4772,1.82393,0.498247,0.6,-1.2,0,12403,49.217,25.577,12588.2
2723458170,0.634767,2.223,95.4877,0.0992238,-0.0949481,0.930498,1.55609,-0.639171,-0.0494463,1.3851,1.66544,0.37701,0.6,-1.2,0,12403,49.217,25.577,12588.2
2723558518,0.634767,2.223,95.4655,0.0658495,-0.0658073,0.934563,1.49729,-0.474154,-0.041468,0.97681,1.27149,0.460123,0.6,-1.2,0,12403,49.217,25.577,12588.2
2723658872,0.634767,2.223,95.4409,0.034061,-0.0436685,0.936082,1.44872,-0.34818,-0.0397886,0.78708,0.950209,0.381878,0.6,-1.2,0,12403,49.217,25.577,12588.2
2723759245,0.634767,2.223,95.4366,0.00870221,-0.0287922,0.936811,1.41891,-0.248892,-0.0256159,0.636765,0.682676,0.409275,0.6,-1.2,0,12403,49.217,25.577,12588.2
2723859713,0.634767,2.223,95.4319,-0.00897513,-0.0169726,0.937061,1.40422,-0.177525,-0.00363033,0.465563,0.396135,0.158095,-1.5,1.6,0,12403,49.217,25.577,12588.2
2723960103,0.634767,2.223,95.4282,0.00745099,0.0108442,0.936959,1.40121,-0.124565,0.012403,0.400242,0.193576,0.669843,-1.5,1.6,0,12403,49.05,27.427,13452.9
2724060482,0.634767,2.223,95.4308,0.138772,0.115628,0.946506,1.33662,-0.0730714,0.061607,-0.268179,0.977574,0.491975,-1.5,1.6,0,12403,49.05,27.427,13452.9
2724160819,0.634767,2.223,95.4461,0.248313,0.197537,0.960748,1.08395,-0.0290465,0.0159381,-1.36652,2.375,-0.0365546,-1.5,1.6,0,12403,49.05,27.427,13452.9
2724261185,0.634767,2.223,95.4659,0.309448,0.247002,0.97232,0.709538,0.0165657,-0.000251524,-1.77312,3.04532,1.52445,-1.5,1.6,0,12403,49.05,27.427,13452.9
2724361503,0.634767,2.223,95.4824,0.331636,0.274276,0.978048,0.264488,0.0605735,0.00316293,-2.13677,3.41345,1.77209,-1.5,1.6,0,12403,49.05,27.427,13452.9
2724461805,0.634767,2.223,95.4928,0.326294,0.28878,0.979246,-0.196463,0.0843271,-4.11142e-05,-2.31488,3.40102,1.80472,-1.5,1.6,0,12403,49.05,27.427,13452.9
2724562166,0.634767,2.223,95.4904,0.286718,0.277916,0.972193,-0.659341,0.085425,0.00686202,-2.46542,3.23831,1.97144,-1.5,1.6,0,12403,49.05,27.427,13452.9
2724662515,0.634767,2.223,95.4894,0.227242,0.250377,0.962346,-1.05024,0.0710955,0.02218,-2.24566,2.74282,1.29153,-1.5,1.6,0,12403,49.05,27.427,13452.9
2724762874,0.634767,2.223,95.4937,0.169856,0.21986,0.955223,-1.37014,0.0444243,0.0285332,-1.89777,2.1379,0.92657,-1.5,1.6,0,12403,49.05,27.427,13452.9
2724863271,0.634767,2.223,95.4987,0.11945,0.188834,0.950108,-1.61229,0.0110702,0.0388512,-1.57934,1.58324,0.368548,0.4,-3.3,0,12403,49.05,27.427,13452.9
2724963616,0.634767,2.223,95.4993,0.0698428,0.154822,0.945204,-1.79003,-0.020712,0.0238725,-1.23772,1.09898,0.0551681,0.4,-3.3,0,12369,49.163,25.489,12531.2
2725063957,0.634767,2.223,95.5037,-0.115638,0.0299807,0.932519,-1.92352,-0.0658706,0.0920829,-0.795346,0.54292,0.565378,0.4,-3.3,0,12369,49.163,25.489,12531.2
2725164363,0.634767,2.223,95.5188,-0.314319,-0.0715585,0.948769,-1.75027,-0.104901,0.0807471,0.921044,-2.13527,-0.405466,0.4,-3.3,0,12369,49.163,25.489,12531.2
2725264702,0.634767,2.223,95.5256,-0.429165,-0.119916,0.968352,-1.40573,-0.180047,-0.0153212,1.47569,-3.39818,0.878177,0.4,-3.3,0,12369,49.163,25.489,12531.2
2725365048,0.634767,2.223,95.5238,-0.480041,-0.138951,0.979466,-0.939346,-0.291049,-0.0583663,1.76697,-4.02394,2.16607,0.4,-3.3,0,12369,49.163,25.489,12531.2
2725465409,0.634767,2.223,95.515,-0.485517,-0.136761,0.980112,-0.403981,-0.417635,-0.0587296,1.87947,-4.29001,2.68607,0.4,-3.3,0,12369,49.163,25.489,12531.2
2725565785,0.634767,2.223,95.494,-0.469041,-0.124695,0.97639,0.129147,-0.544989,-0.0540475,1.83843,-4.26165,2.58365,0.4,-3.3,0,12369,49.163,25.489,12531.2
2725666153,0.634767,2.223,95.4696,-0.447549,-0.108327,0.969748,0.631128,-0.668805,-0.0310619,1.67258,-3.93291,2.61428,0.4,-3.3,0,12369,49.163,25.489,12531.2
2725766518,0.634767,2.223,95.4644,-0.421849,-0.0853166,0.960813,1.0912,-0.790068,-0.0174384,1.47614,-3.76232,2.10594,0.4,-3.3,0,12369,49.163,25.489,12531.2
2725866870,0.634767,2.223,95.4605,-0.364621,-0.0560676,0.951138,1.49813,-0.919533,0.00125059,1.14469,-3.35317,1.58078,3.8,-4.8,0,12369,49.163,25.489,12531.2
2725967168,0.634767,2.223,95.4638,-0.308687,-0.045126,0.945501,1.82274,-1.02878,0.024572,0.856806,-2.70251,1.28381,3.8,-4.8,0,12369,49.153,25.598,12582.2
2726067491,0.634767,2.223,95.469,-0.267845,-0.136546,0.946468,2.09115,-1.12134,0.0489165,0.902517,-2.28694,0.667626,3.8,-4.8,0,12369,49.153,25.598,12582.2
2726167799,0.634767,2.223,95.493,-0.244588,-0.242585,0.961365,2.38852,-1.07839,0.0313938,2.08585,-1.84748,0.602375,3.8,-4.8,0,12369,49.153,25.598,12582.2
2726268208,0.634767,2.223,95.5107,-0.241698,-0.308363,0.974654,2.79891,-0.902064,0.0101228,2.94551,-1.58975,1.20225,3.8,-4.8,0,12369,49.153,25.598,12582.2
2726368564,0.634767,2.223,95.5068,-0.243816,-0.333198,0.981668,3.18229,-0.724133,-0.00770253,3.224,-1.65199,1.55967,3.8,-4.8,0,12369,49.153,25.598,12582.2
2726468928,0.634767,2.223,95.502,-0.245513,-0.332538,0.984147,3.56778,-0.527308,-0.00313581,3.30252,-1.57885,1.78015,3.8,-4.8,0,12369,49.153,25.598,12582.2
2726569283,0.634767,2.223,95.5005,-0.249838,-0.318213,0.984153,3.9339,-0.345352,-0.00492802,3.16341,-1.58874,1.5823,3.8,-4.8,0,12369,49.153,25.598,12582.2
2726669619,0.634768,2.223,95.5011,-0.253236,-0.295994,0.98094,4.29387,-0.185575,-0.00490993,3.06216,-1.73325,1.32181,3.8,-4.8,0,12369,49.153,25.598,12582.2
2726769994,0.634768,2.223,95.5012,-0.236515,-0.256165,0.972516,4.63587,-0.0422161,0.0105027,2.7508,-1.66193,1.32299,3.8,-4.8,0,12369,49.153,25.598,12582.2
2726870393,0.634768,2.223,95.5021,-0.215617,-0.205689,0.961815,4.92092,0.0688239,0.031908,2.18576,-1.45202,0.961841,-1,-3.4,0,12369,49.153,25.598,12582.2
2726970749,0.634768,2.223,95.5053,-0.184967,-0.128332,0.9512,5.1449,0.147237,0.0403915,1.75071,-1.23103,0.982944,-1,-3.4,0,12369,49.085,27.457,13477.3
2727071115,0.634768,2.223,95.5177,-0.0796692,0.123832,0.939837,5.29939,0.171527,0.137366,0.582431,-0.88231,0.826062,-1,-3.4,0,12369,49.085,27.457,13477.3
2727171394,0.634768,2.223,95.5446,0.0326715,0.333592,0.945539,5.13372,0.000476897,0.166173,-2.62264,0.446209,0.418891,-1,-3.4,0,12369,49.085,27.457,13477.3
2727271583,0.634768,2.223,95.5629,0.0862653,0.447053,0.9517,4.79972,-0.217842,0.0719981,-4.08761,1.33885,0.355805,-1,-3.4,0,12369,49.085,27.457,13477.3
2727371869,0.634768,2.223,95.599,0.0740808,0.490262,0.948373,4.39459,-0.497843,-0.0117731,-4.3996,1.36346,2.01492,-1,-3.4,0,12369,49.085,27.457,13477.3
2727472339,0.634768,2.223,95.631,0.0448285,0.489493,0.939263,3.97768,-0.829574,-0.0358504,-4.90893,1.16751,1.38609,-1,-3.4,0,12369,49.085,27.457,13477.3
2727572744,0.634768,2.223,95.6241,0.0199374,0.470756,0.929702,3.61526,-1.14635,-0.080265,-4.37071,0.794033,1.47819,-1,-3.4,0,12369,49.085,27.457,13477.3
2727674106,0.634768,2.223,95.6059,0.00754015,0.420502,0.922324,3.26779,-1.46282,-0.115044,-3.9567,0.723752,2.18116,-1,-3.4,0,12369,49.085,27.457,13477.3
2727774960,0.634768,2.223,95.5873,-0.00444082,0.343379,0.919072,2.95916,-1.73338,-0.0762443,-3.54171,0.565261,1.23248,-1,-3.4,0,12369,49.085,27.457,13477.3
2727875380,0.634768,2.223,95.5745,-0.025728,0.274382,0.919635,2.71824,-1.9375,-0.0813063,-2.64112,0.496671,0.95236,-0.1,3.2,0,12369,49.085,27.457,13477.3
2727975718,0.634768,2.223,95.5542,-0.0169415,0.195857,0.923206,2.53571,-2.11082,-0.0533964,-1.9411,0.171847,1.38057,-0.1,3.2,0,12369,49.073,28.254,13865.1
2728076103,0.634768,2.223,95.5315,0.167543,0.0747709,0.938893,2.35836,-2.20988,0.113014,-1.0995,0.723603,2.00952,-0.1,3.2,0,12369,49.073,28.254,13865.1
2728176407,0.634768,2.223,95.5492,0.345015,-0.00203341,0.937388,2.07238,-2.03246,0.153181,0.0966578,3.27518,0.344229,-0.1,3.2,0,12369,49.073,28.254,13865.1
2728276833,0.634768,2.223,95.5609,0.434752,-0.0305167,0.929143,1.74924,-1.76626,-0.000318643,0.463867,4.3709,0.187475,-0.1,3.2,0,12369,49.073,28.254,13865.1
2728377171,0.634768,2.223,95.5622,0.463271,-0.0398595,0.924752,1.3624,-1.4243,-0.0899792,0.58106,4.55497,2.13961,-0.1,3.2,0,12369,49.073,28.254,13865.1
2728477541,0.634768,2.223,95.5645,0.466031,-0.0418513,0.921923,0.951561,-1.06196,-0.119443,0.51011,4.88275,1.67446,-0.1,3.2,0,12369,49.073,28.254,13865.1
2728577883,0.634768,2.223,95.5523,0.459017,-0.0453289,0.918236,0.573529,-0.719099,-0.190753,0.579666,4.62907,1.62843,-0.1,3.2,0,12369,49.073,28.254,13865.1
2728678255,0.634768,2.223,95.5181,0.456287,-0.0407471,0.91922,0.198306,-0.346306,-0.228256,0.709994,4.49315,2.48094,-0.1,3.2,0,12369,49.073,28.254,13865.1
2728778606,0.634768,2.223,95.4761,0.450123,-0.0231746,0.926724,-0.211592,0.0591857,-0.198001,0.76688,4.68112,2.99266,-0.1,3.2,0,12369,49.073,28.254,13865.1
2728879003,0.634768,2.223,95.4385,0.424703,0.00490068,0.936674,-0.641127,0.445926,-0.117764,0.453419,4.51085,3.12696,-4.7,-0.7,0,12369,49.073,28.254,13865.1
2728979405,0.634768,2.223,95.4122,0.369244,0.0577152,0.950049,-1.04527,0.773602,-0.0451197,0.28176,4.14767,2.88244,-4.7,-0.7,0,12369,49.073,28.254,13865.1
2729079747,0.634768,2.223,95.3997,0.151927,0.20174,0.944732,-1.4253,0.996572,0.110586,-0.52727,3.47405,1.74246,-4.7,-0.7,0,12369,49.205,25.808,12698.8
2729180101,0.634768,2.223,95.4241,-0.127404,0.312329,0.912351,-1.6169,0.876606,0.129405,-2.28098,0.236754,0.552015,-4.7,-0.7,0,12369,49.205,25.808,12698.8
2729280465,0.634768,2.223,95.4604,-0.300179,0.368931,0.891997,-1.64049,0.540532,0.0936354,-3.08202,-2.20962,0.549084,-4.7,-0.7,0,12369,49.205,25.808,12698.8
2729380804,0.634768,2.223,95.5064,-0.355671,0.391029,0.891067,-1.58151,0.104021,-0.0122273,-3.20133,-3.0549,1.63295,-4.7,-0.7,0,12369,49.205,25.808,12698.8
2729481106,0.634768,2.223,95.5499,-0.342236,0.392858,0.899751,-1.51586,-0.399206,0.000745915,-3.30767,-3.05492,2.50378,-4.7,-0.7,0,12369,49.205,25.808,12698.8
2729581467,0.634768,2.223,95.569,-0.301179,0.388375,0.908547,-1.46481,-0.86482,0.0164645,-3.27557,-2.82864,1.82344,-4.7,-0.7,0,12369,49.205,25.808,12698.8
2729681823,0.634768,2.223,95.5865,-0.253853,0.38651,0.913474,-1.44492,-1.2816,0.0195175,-3.05472,-2.25391,1.72917,-4.7,-0.7,0,12369,49.205,25.808,12698.8
2729782183,0.634768,2.223,95.5931,-0.202678,0.387331,0.915677,-1.46211,-1.68511,0.0298344,-3.09475,-1.87833,1.52877,-4.7,-0.7,0,12369,49.205,25.808,12698.8
2729882577,0.634768,2.223,95.597,-0.155016,0.388264,0.917504,-1.52528,-2.05713,0.0285319,-3.18214,-1.37325,1.25347,-4.2,4.6,0,12369,49.205,25.808,12698.8
2729982932,0.634768,2.223,95.5897,-0.114322,0.380717,0.920987,-1.61997,-2.39082,0.00859037,-2.983,-0.890752,1.25834,-4.2,4.6,0,12369,49.205,25.808,12698.8
2730083244,0.634768,2.223,95.5774,0.0568861,0.272487,0.961788,-1.75742,-2.74793,0.0969448,-3.0883,-0.599857,1.75437,-4.2,4.6,0,12324,49.23,21.865,10764.1
2730183565,0.634768,2.223,95.5811,0.25054,0.149024,0.973912,-1.95378,-2.80223,0.112734,-1.31613,1.78434,0.322072,-4.2,4.6,0,12324,49.23,21.865,10764.1
2730283941,0.634768,2.223,95.5745,0.345079,0.0861,0.958582,-2.20064,-2.67437,-0.00324076,-0.332318,3.24781,-0.119905,-4.2,4.6,0,12324,49.23,21.865,10764.1
2730384353,0.634768,2.223,95.5539,0.380555,0.0634483,0.947871,-2.49132,-2.46575,-0.070096,0.0438869,3.62857,1.15455,-4.2,4.6,0,12324,49.23,21.865,10764.1
2730484708,0.634768,2.223,95.529,0.378525,0.0627667,0.941757,-2.79693,-2.23331,-0.093917,0.0744714,3.60539,1.64913,-4.2,4.6,0,12324,49.23,21.865,10764.1
2730585050,0.634768,2.223,95.4935,0.37023,0.0722118,0.94059,-3.10897,-2.00724,-0.0959478,-0.00867559,3.68002,1.44653,-4.2,4.6,0,12324,49.23,21.865,10764.1
2730686671,0.634768,2.223,95.4628,0.362423,0.0863338,0.944034,-3.41481,-1.7828,-0.0821085,0.0420994,3.44823,1.87341,-4.2,4.6,0,12324,49.23,21.865,10764.1
2730791833,0.634768,2.223,95.4403,0.351263,0.106819,0.950163,-3.78848,-1.53088,-0.0902346,-0.173988,3.39112,1.49634,-4.2,4.6,0,12324,49.23,21.865,10764.1
2730892388,0.634768,2.223,95.4196,0.342261,0.129356,0.955679,-4.10309,-1.33758,-0.0633944,-0.340359,3.25889,1.53519,-3.6,0.7,0,12324,49.23,21.865,10764.1
2730992746,0.634768,2.223,95.4227,0.309934,0.147831,0.958772,-4.42316,-1.16486,-0.0470964,-0.552039,3.17373,1.59601,-3.6,0.7,0,12324,49.23,21.865,10764.1
2731093107,0.634768,2.223,95.4273,0.0871696,0.135219,0.930686,-4.71566,-1.04118,0.0555068,-0.578346,2.38106,1.52994,-3.6,0.7,0,12324,49.23,24.079,11854.1
2731193433,0.634768,2.223,95.453,-0.238927,0.098088,0.915752,-4.69044,-1.10548,0.164064,-0.325955,-1.01846,1.20069,-3.6,0.7,0,12324,49.23,24.079,11854.1
2731293802,0.634767,2.223,95.4855,-0.385642,0.0754891,0.923571,-4.40004,-1.31296,0.190529,-0.106756,-3.93478,0.129354,-3.6,0.7,0,12324,49.23,24.079,11854.1
2731394163,0.634767,2.223,95.5274,-0.395737,0.0709291,0.932983,-4.10016,-1.50741,0.0181902,0.0108878,-3.93893,0.110304,-3.6,0.7,0,12324,49.23,24.079,11854.1
2731494508,0.634767,2.223,95.5469,-0.337948,0.0720875,0.937456,-3.79318,-1.71517,-0.0204933,-0.0185577,-3.64437,0.961612,-3.6,0.7,0,12324,49.23,24.079,11854.1
2731594811,0.634767,2.223,95.5565,-0.259434,0.074785,0.939462,-3.54384,-1.86988,-0.0285986,0.0893136,-2.80399,0.607852,-3.6,0.7,0,12324,49.23,24.079,11854.1
2731696281,0.634767,2.223,95.5642,-0.208407,0.0819533,0.938048,-3.36008,-1.98336,-0.0381096,0.0863767,-2.1424,0.335638,-3.6,0.7,0,12324,49.23,24.079,11854.1
2731801779,0.634767,2.223,95.5415,-0.165053,0.0843263,0.937398,-3.21091,-2.08631,-0.0549375,-0.0633293,-1.80907,-0.399041,-3.6,0.7,0,12324,49.23,24.079,11854.1
2731906530,0.634767,2.223,95.5283,-0.124791,0.090432,0.936487,-3.08863,-2.16489,-0.0539157,0.0163089,-1.27646,0.518766,-0.4,0.8,0,12324,49.23,24.079,11854.1
2732006907,0.634767,2.223,95.532,-0.0878411,0.0824059,0.936426,-2.99986,-2.2437,-0.057046,-0.226178,-0.945239,0.0825973,-0.4,0.8,0,12324,49.23,24.079,11854.1
2732107269,0.634767,2.223,95.5285,-0.0560409,-0.113931,0.93841,-2.95452,-2.31638,0.000161039,-0.199763,-0.573055,0.779246,-0.4,0.8,0,12324,49.23,24.079,11854.1
2732207607,0.634767,2.223,95.5325,-0.0217482,-0.312375,0.939253,-2.75275,-2.11479,0.0697709,2.84395,-0.25565,1.07301,-0.4,0.8,0,12324,49.23,24.079,11854.1
2732307939,0.634767,2.223,95.5353,-0.00804304,-0.414012,0.939332,-2.48653,-1.75774,0.0172101,4.34079,0.110367,1.00669,-0.4,0.8,0,12324,49.23,24.079,11854.1
2732408336,0.634767,2.223,95.5293,-0.0102098,-0.413668,0.940555,-2.17929,-1.34014,-0.0194698,4.65104,0.137651,1.90653,-0.4,0.8,0,12324,49.23,24.079,11854.1
2732508699,0.634767,2.223,95.5257,-0.0101144,-0.372449,0.941087,-1.83163,-0.878011,-0.0527012,4.39155,0.0138628,1.33484,-0.4,0.8,0,12324,49.23,24.079,11854.1
2732609056,0.634767,2.223,95.5095,-0.0101114,-0.312063,0.940635,-1.58135,-0.53963,-0.0834205,3.84522,0.0665966,1.40129,-0.4,0.8,0,12280,49.116,29.367,14423.9
2732709427,0.634767,2.223,95.4798,-0.0101683,-0.229881,0.939732,-1.38101,-0.262796,-0.0959539,2.99609,0.0197342,1.03272,-0.4,0.8,0,12280,49.116,29.367,14423.9
2732809879,0.634767,2.223,95.4627,-0.0182863,-0.145968,0.938662,-1.24342,-0.0641836,-0.0989604,2.0306,0.0182187,0.605566,-0.4,0.8,0,12280,49.116,29.367,14423.9
2732910376,0.634767,2.223,95.443,-0.031934,-0.0685505,0.937343,-1.13798,0.0632009,-0.0877586,1.35338,-0.16524,0.335152,0.4,-2.1,0,12280,49.116,29.367,14423.9
2733010781,0.634767,2.223,95.4221,-0.0525353,-0.0245506,0.93819,-1.06739,0.132551,-0.052046,0.661917,-0.112641,0.794892,0.4,-2.1,0,12280,49.116,29.367,14423.9
2733111125,0.634767,2.223,95.4,-0.191932,-0.0324977,0.940111,-0.960147,0.155109,0.00915981,0.702992,-1.00438,0.499056,0.4,-2.1,0,12280,49.116,29.367,14423.9
2733211503,0.634767,2.223,95.4054,-0.314917,-0.0477806,0.942699,-0.713491,0.0893973,0.00725548,0.831396,-2.53214,0.547729,0.4,-2.1,0,12280,49.116,29.367,14423.9
2733311856,0.634767,2.223,95.4239,-0.388504,-0.0580156,0.944441,-0.381438,-0.0224111,-0.00347184,0.93657,-3.26069,1.24593,0.4,-2.1,0,12280,49.116,29.367,14423.9
2733412239,0.634767,2.223,95.4432,-0.418847,-0.0636066,0.944638,0.00896525,-0.160291,0.00817982,1.13581,-3.76898,1.41291,0.4,-2.1,0,12280,49.116,29.367,14423.9
2733512624,0.634767,2.223,95.4675,-0.388495,-0.0582626,0.942015,0.405519,-0.322405,0.0250445,0.976999,-3.7537,1.87158,0.4,-2.1,0,12280,49.116,29.367,14423.9
2733613064,0.634767,2.223,95.4866,-0.326767,-0.049645,0.940107,0.74281,-0.447153,0.0623499,0.95707,-3.1768,1.19453,0.4,-2.1,0,12280,49.116,29.367,14423.9
2733713487,0.634767,2.223,95.5142,-0.26426,-0.0362545,0.93786,1.00482,-0.535821,0.081335,0.822566,-2.40915,0.852057,0.4,-2.1,0,12280,49.25,24.401,12017.5
2733813882,0.634767,2.223,95.5463,-0.212935,-0.0222832,0.93661,1.19196,-0.60473,0.0862007,0.540569,-1.90956,0.2505,0.4,-2.1,0,12280,49.25,24.401,12017.5
2733914319,0.634767,2.223,95.5732,-0.171567,-0.0114269,0.935323,1.33072,-0.659108,0.0845483,0.429219,-1.34985,0.121714,-3.1,-4.4,0,12280,49.25,24.401,12017.5
2734014680,0.634767,2.223,95.5961,-0.146188,0.0160648,0.932925,1.43184,-0.689054,0.0643829,0.448884,-0.872959,0.554835,-3.1,-4.4,0,12280,49.25,24.401,12017.5
2734115077,0.634767,2.223,95.6079,-0.164977,0.13468,0.928107,1.49781,-0.739461,0.0630549,-0.301624,-0.915719,-0.911862,-3.1,-4.4,0,12280,49.25,24.401,12017.5
2734215464,0.634767,2.223,95.6133,-0.19825,0.24787,0.91,1.49404,-0.910686,-0.0400981,-1.65489,-1.1482,-0.206142,-3.1,-4.4,0,12280,49.25,24.401,12017.5
2734315826,0.634767,2.223,95.609,-0.222679,0.311475,0.893537,1.45382,-1.20172,-0.0734259,-2.44957,-1.3585,0.851924,-3.1,-4.4,0,12280,49.25,24.401,12017.5
2734416200,0.634767,2.223,95.5983,-0.24285,0.336251,0.883605,1.39677,-1.54881,-0.077192,-2.7949,-1.42017,1.43953,-3.1,-4.4,0,12280,49.25,24.401,12017.5
2734516571,0.634767,2.223,95.5899,-0.263633,0.330077,0.880791,1.34263,-1.90976,-0.0688632,-2.87945,-1.63416,1.41786,-3.1,-4.4,0,12280,49.25,24.401,12017.5
2734616918,0.634767,2.223,95.58,-0.277566,0.319456,0.880313,1.31,-2.27422,-0.0485773,-2.66487,-1.73389,1.53686,-3.1,-4.4,0,12280,49.25,24.401,12017.5
2734717262,0.634767,2.223,95.5695,-0.294151,0.310474,0.880269,1.28487,-2.62214,-0.0491402,-2.53446,-1.69081,1.62851,-3.1,-4.4,0,12280,49.25,24.579,12105.2
2734817596,0.634767,2.223,95.5703,-0.30801,0.301081,0.881263,1.28321,-2.96627,-0.0432848,-2.35215,-1.8392,1.51065,-3.1,-4.4,0,12280,49.25,24.579,12105.2
2734918010,0.634767,2.223,95.57,-0.321988,0.290018,0.88197,1.29915,-3.31177,-0.0469617,-2.3638,-2.08293,1.27421,-1.6,-1.5,0,12280,49.25,24.579,12105.2
2735018436,0.634767,2.223,95.5722,-0.298315,0.258165,0.893253,1.3345,-3.6562,-0.0531194,-2.2496,-2.22792,1.37391,-1.6,-1.5,0,12280,49.25,24.579,12105.2
2735118770,0.634767,2.223,95.5768,-0.0796514,0.127104,0.938256,1.36452,-3.96379,0.051587,-1.66229,-1.57299,1.55088,-1.6,-1.5,0,12280,49.25,24.579,12105.2
2735219134,0.634767,2.223,95.589,0.14385,-0.00251094,0.94263,1.26461,-3.91889,0.161277,0.100658,1.26293,0.826787,-1.6,-1.5,0,12280,49.25,24.579,12105.2
2735319492,0.634767,2.223,95.6131,0.221247,-0.0562291,0.935136,1.08727,-3.69301,0.129313,0.944299,2.86561,-0.976852,-1.6,-1.5,0,12280,49.25,24.579,12105.2
2735419825,0.634767,2.223,95.6425,0.21331,-0.0647655,0.934095,0.929087,-3.46229,-0.000155706,1.02868,2.60181,0.260365,-1.6,-1.5,0,12280,49.25,24.579,12105.2
2735520160,0.634767,2.223,95.6588,0.180615,-0.0609727,0.934791,0.768985,-3.21908,-0.0145084,1.10503,2.61561,-0.0751781,-1.6,-1.5,0,12280,49.25,24.579,12105.2
2735620522,0.634767,2.223,95.6686,0.144326,-0.0570816,0.935024,0.649925,-3.02691,-0.0800355,0.932099,1.99836,-0.199211,-1.6,-1.5,0,12280,49.25,24.579,12105.2
2735720882,0.634767,2.223,95.6675,0.119009,-0.0525627,0.935221,0.54428,-2.84034,-0.108528,0.889934,1.81539,0.253108,-1.6,-1.5,0,12280,49.272,25.362,12496.4
2735821261,0.634767,2.223,95.6363,0.0889641,-0.0432155,0.935463,0.458321,-2.66353,-0.126438,0.843537,1.58042,-0.102092,-1.6,-1.5,0,12280,49.272,25.362,12496.4
2735921678,0.634767,2.223,95.6007,0.0612015,-0.0303093,0.93641,0.386354,-2.51788,-0.146024,0.625967,1.15271,0.348899,-3.8,-1.8,0,12280,49.272,25.362,12496.4
2736022002,0.634767,2.223,95.5786,0.0419084,-0.0143088,0.93778,0.332304,-2.38401,-0.121741,0.658778,0.97793,0.44089,-3.8,-1.8,0,12280,49.272,25.362,12496.4
2736122266,0.634767,2.223,95.5643,0.0116775,0.118579,0.938587,0.273303,-2.25692,-0.0393137,0.378504,0.99057,0.220368,-3.8,-1.8,0,12280,49.272,25.362,12496.4
2736222516,0.634767,2.223,95.5484,-0.0243535,0.254765,0.93572,0.146617,-2.29777,-0.126491,-1.5034,0.48731,-0.676478,-3.8,-1.8,0,12280,49.272,25.362,12496.4
2736322795,0.634767,2.223,95.5221,-0.0511142,0.331478,0.928805,-0.0182895,-2.4731,-0.167478,-2.27366,0.0600117,1.40675,-3.8,-1.8,0,12280,49.272,25.362,12496.4
2736423054,0.634767,2.223,95.5056,-0.0636273,0.350731,0.9224,-0.222833,-2.72184,-0.111328,-2.90055,0.0833606,1.59429,-3.8,-1.8,0,12280,49.272,25.362,12496.4
2736523306,0.634767,2.223,95.5072,-0.0845551,0.329724,0.919063,-0.420806,-2.96003,-0.0637386,-2.77249,0.0908978,1.46224,-3.8,-1.8,0,12280,49.272,25.362,12496.4
2736623551,0.634767,2.223,95.5058,-0.0987644,0.291631,0.919968,-0.565647,-3.16471,-0.035727,-2.32888,-0.123273,0.967295,-3.8,-1.8,0,12280,49.272,25.362,12496.4
2736723811,0.634767,2.223,95.5068,-0.105035,0.255867,0.922065,-0.67211,-3.34737,-0.00875092,-1.9728,-0.278951,0.651382,-3.8,-1.8,0,12280,49.193,25.343,12467
2736824061,0.634767,2.223,95.532,-0.107864,0.2239,0.924519,-0.748138,-3.5007,0.0117876,-1.51531,-0.322631,0.507199,-3.8,-1.8,0,12280,49.193,25.343,12467
2736924381,0.634767,2.223,95.5627,-0.108417,0.199832,0.927106,-0.806902,-3.6346,0.015163,-1.40515,-0.403951,-0.00211596,-4.7,0.5,0,12280,49.193,25.343,12467
2737024731,0.634767,2.223,95.5735,-0.0984096,0.182022,0.927672,-0.846004,-3.75288,0.0156813,-1.07906,-0.347629,0.319161,-4.7,0.5,0,12280,49.193,25.343,12467
2737125091,0.634767,2.223,95.5814,0.0524405,0.202544,0.950974,-0.899157,-3.86815,0.105925,-1.14233,-0.0239289,0.171304,-4.7,0.5,0,12280,49.193,25.343,12467
2737225428,0.634767,2.223,95.6011,0.208413,0.235331,0.971602,-1.09964,-3.87203,0.0162722,-1.41566,1.95493,-0.66093,-4.7,0.5,0,12280,49.193,25.343,12467
2737325751,0.634767,2.223,95.6123,0.281425,0.250498,0.979885,-1.44096,-3.84311,-0.069225,-1.68764,2.99428,0.942301,-4.7,0.5,0,12280,49.193,25.343,12467
2737426076,0.634767,2.223,95.595,0.28505,0.236666,0.974381,-1.85179,-3.80398,-0.0877318,-1.81319,3.30584,1.69618,-4.7,0.5,0,12280,49.193,25.343,12467
2737526444,0.634767,2.223,95.5709,0.248518,0.207204,0.962251,-2.24045,-3.73057,-0.0789371,-1.45659,3.37674,1.25397,-4.7,0.5,0,12280,49.193,25.343,12467
2737626800,0.634767,2.223,95.5504,0.199027,0.17489,0.952107,-2.56649,-3.65375,-0.0740462,-1.0398,2.84725,1.2999,-4.7,0.5,0,12280,49.193,25.343,12467
2737727094,0.634767,2.223,95.517,0.151493,0.152265,0.947316,-2.83315,-3.58011,-0.0556025,-0.779228,2.42039,0.81439,-4.7,0.5,0,12280,49.407,21.237,10492.6
2737827466,0.634767,2.223,95.5005,0.104853,0.138069,0.944721,-3.03507,-3.51437,-0.0611272,-0.57169,1.86083,0.345968,-4.7,0.5,0,12280,49.407,21.237,10492.6
2737927901,0.634767,2.223,95.5035,0.0625988,0.129197,0.942609,-3.19306,-3.46783,-0.0513707,-0.51073,1.43263,0.254674,2.4,0.9,0,12280,49.407,21.237,10492.6
2738028296,0.634767,2.223,95.5095,0.029757,0.104472,0.941212,-3.3038,-3.4396,-0.0524977,-0.309501,0.943719,0.251934,2.4,0.9,0,12280,49.407,21.237,10492.6
2738128636,0.634767,2.223,95.5187,0.023861,-0.107431,0.938205,-3.3874,-3.42567,0.00857393,-0.111319,0.626822,0.830452,2.4,0.9,0,12280,49.407,21.237,10492.6
2738228977,0.634767,2.223,95.5303,0.0123981,-0.291492,0.936987,-3.28788,-3.16473,0.0480925,2.85188,0.636599,0.502573,2.4,0.9,0,12280,49.407,21.237,10492.6
2738329335,0.634767,2.223,95.5313,0.00211044,-0.401468,0.937568,-3.09256,-2.80599,-0.0125467,4.003,0.458681,1.1622,2.4,0.9,0,12280,49.407,21.237,10492.6
2738429701,0.634766,2.223,95.5174,-0.00207611,-0.458731,0.938528,-2.75205,-2.26188,-0.0475737,4.91365,0.307732,2.1488,2.4,0.9,0,12280,49.407,21.237,10492.6
2738530026,0.634766,2.223,95.4912,0.00203532,-0.487899,0.940598,-2.44105,-1.7788,-0.082802,5.07501,0.287533,2.43337,2.4,0.9,0,12280,49.407,21.237,10492.6
2738630382,0.634766,2.223,95.4607,0.0138258,-0.495639,0.94191,-2.11831,-1.25655,-0.0780347,5.27712,0.369483,2.86844,2.4,0.9,0,12280,49.407,21.237,10492.6
2738730708,0.634766,2.223,95.4315,0.0269815,-0.485531,0.942271,-1.81332,-0.73601,-0.0839773,5.13324,0.573328,2.93301,2.4,0.9,0,12280,49.387,22.572,11147.6
2738831123,0.634766,2.223,95.4097,0.0430456,-0.459292,0.942113,-1.5327,-0.207976,-0.0898992,4.87014,0.769907,2.96537,2.4,0.9,0,12280,49.387,22.572,11147.6
2738931525,0.634766,2.223,95.4109,0.0408683,-0.426168,0.940963,-1.27989,0.317143,-0.0405543,4.69364,0.947913,2.65164,0.9,0.9,0,12280,49.387,22.572,11147.6
2739031837,0.634766,2.223,95.4157,0.0183593,-0.389986,0.941623,-1.04149,0.799734,-0.00683654,4.44338,0.810565,2.3613,0.9,0.9,0,12280,49.387,22.572,11147.6
2739132244,0.634766,2.223,95.4351,-0.00444171,-0.262711,0.943239,-0.827079,1.20324,0.0431738,3.65593,0.626271,1.33559,0.9,0.9,0,12280,49.387,22.572,11147.6
2739232611,0.634766,2.223,95.4568,-0.0302123,-0.119854,0.942065,-0.697081,1.42401,0.0584757,1.98859,0.263869,0.340969,0.9,0.9,0,12280,49.387,22.572,11147.6
2739332984,0.634766,2.223,95.4871,-0.0500218,-0.0157876,0.938619,-0.64394,1.5103,0.0625052,0.635183,0.0719404,-0.279359,0.9,0.9,0,12280,49.387,22.572,11147.6
2739433342,0.634766,2.223,95.5201,-0.059983,0.0339938,0.936118,-0.627636,1.52273,0.0594296,-0.0917815,-0.0659914,-0.304214,0.9,0.9,0,12280,49.387,22.572,11147.6
2739533679,0.634766,2.223,95.5568,-0.0638399,0.0497423,0.934788,-0.620795,1.49979,0.0484735,-0.383186,-0.195523,-0.341413,0.9,0.9,0,12280,49.387,22.572,11147.6
2739634035,0.634766,2.223,95.5874,-0.0648518,0.0480148,0.934326,-0.614354,1.46365,0.0396602,-0.369351,-0.23738,-0.120224,0.9,0.9,0,12280,49.387,22.572,11147.6
2739734379,0.634766,2.223,95.5897,-0.061199,0.0379318,0.934252,-0.606919,1.42926,0.0258556,-0.33604,-0.246376,-0.355546,0.9,0.9,0,12270,49.263,24.331,11986.2
2739834737,0.634766,2.223,95.5854,-0.0589215,0.0265319,0.934463,-0.600783,1.40621,0.0113982,-0.175545,-0.186778,-0.263648,0.9,0.9,0,12270,49.263,24.331,11986.2
2739935123,0.634766,2.223,95.5774,-0.0575581,0.0164475,0.93449,-0.593516,1.38632,-0.00786464,-0.0564261,-0.222708,-0.31587,2.4,3,0,12270,49.263,24.331,11986.2
2740035495,0.634766,2.223,95.5688,-0.0320595,-0.00567596,0.934891,-0.579418,1.36023,-0.0105764,-0.0806423,-0.174054,0.446144,2.4,3,0,12270,49.263,24.331,11986.2
2740135802,0.634766,2.223,95.5491,0.108701,-0.1083,0.929119,-0.580278,1.38074,0.00540337,0.534696,0.425908,-0.00504173,2.4,3,0,12270,49.263,24.331,11986.2
2740236201,0.634766,2.223,95.5217,0.216243,-0.179406,0.917173,-0.643665,1.60979,-0.0309549,1.66993,2.03166,0.0681735,2.4,3,0,12270,49.263,24.331,11986.2
2740337247,0.634766,2.223,95.5049,0.270875,-0.218654,0.908392,-0.757612,1.92809,-0.0793736,2.00831,2.70603,1.21591,2.4,3,0,12270,49.263,24.331,11986.2
2740443265,0.634766,2.223,95.4893,0.260126,-0.213409,0.911507,-0.889883,2.30983,-0.0702156,2.18163,2.9712,1.6651,2.4,3,0,12270,49.263,24.331,11986.2
2740543625,0.634766,2.223,95.4649,0.216194,-0.188147,0.919384,-1.00432,2.65024,-0.0425241,2.00433,2.66984,1.40059,2.4,3,0,12270,49.263,24.331,11986.2
2740643987,0.634766,2.223,95.4449,0.168257,-0.158385,0.925305,-1.09929,2.93081,-0.0185134,1.70366,2.26632,0.860825,2.4,3,0,12270,49.263,24.331,11986.2
2740744382,0.634766,2.223,95.4483,0.12517,-0.129441,0.929238,-1.15868,3.1493,-0.0147453,1.41585,1.65078,0.707083,2.4,3,0,12270,49.263,24.331,11986.2
2740844723,0.634766,2.223,95.4542,0.0891918,-0.103746,0.932234,-1.20608,3.32372,0.00341278,1.12272,1.28674,0.383637,2.4,3,0,12270,49.094,28.238,13863.2
2740945124,0.634766,2.223,95.4616,0.0610788,-0.0856095,0.934257,-1.23659,3.45037,0.0106122,0.867008,0.925599,0.128304,4.2,2.8,0,12270,49.094,28.238,13863.2
2741045450,0.634766,2.223,95.471,0.0374514,-0.0893453,0.934346,-1.24865,3.54226,0.0178436,0.672952,0.53928,0.118989,4.2,2.8,0,12270,49.094,28.238,13863.2
2741145806,0.634766,2.223,95.4793,0.00817222,-0.183676,0.93662,-1.24139,3.62453,0.0416857,0.986803,0.329337,-0.147426,4.2,2.8,0,12270,49.094,28.238,13863.2
2741246146,0.634766,2.223,95.4864,-0.015767,-0.280462,0.938826,-1.13721,3.78438,-0.00352374,2.08382,0.0243871,0.160053,4.2,2.8,0,12270,49.094,28.238,13863.2
2741346509,0.634766,2.223,95.4855,-0.0254169,-0.31796,0.938683,-0.95561,4.02665,-0.00144302,2.88265,-0.0486303,1.14059,4.2,2.8,0,12270,49.094,28.238,13863.2
2741446934,0.634766,2.223,95.4826,-0.0276005,-0.309658,0.937148,-0.753528,4.27006,0.0118188,2.96555,-0.191986,0.89586,4.2,2.8,0,12270,49.094,28.238,13863.2
2741547295,0.634766,2.223,95.4575,-0.0236947,-0.277038,0.935551,-0.562059,4.49217,0.00770691,2.80232,-0.172217,0.801768,4.2,2.8,0,12270,49.094,28.238,13863.2
2741647623,0.634766,2.223,95.4347,-0.0181172,-0.235461,0.934583,-0.399323,4.68301,0.00791247,2.30838,-0.175387,0.727446,4.2,2.8,0,12270,49.094,28.238,13863.2
2741747948,0.634766,2.223,95.4362,-0.0131346,-0.195197,0.934838,-0.267325,4.83922,0.0183747,1.90999,-0.0928873,0.486431,4.2,2.8,0,12270,49.094,28.238,13863.2
2741848271,0.634766,2.223,95.4394,-0.0116548,-0.160935,0.935443,-0.144277,4.98536,0.0198835,1.43048,-0.0417398,0.282179,4.2,2.8,0,12235,49.17,24.08,11840.1
2741948601,0.634766,2.223,95.4461,-0.00962333,-0.133442,0.935877,-0.0732465,5.07872,0.0302649,1.09328,0.0565661,0.145942,3.2,3.3,0,12235,49.17,24.08,11840.1
2742048939,0.634766,2.223,95.4513,-0.00468139,-0.100143,0.937457,-0.0073846,5.15586,0.0244837,0.993462,-0.0943485,0.316572,3.2,3.3,0,12235,49.17,24.08,11840.1
2742149220,0.634766,2.223,95.4661,0.0293242,-0.0136883,0.936767,0.0142177,5.19405,0.058805,0.191527,0.107446,0.158834,3.2,3.3,0,12235,49.17,24.08,11840.1
2742249485,0.634766,2.223,95.484,0.062789,0.0528488,0.939807,-0.0476107,5.18183,0.0431256,-0.569771,0.569567,-0.317166,3.2,3.3,0,12235,49.17,24.08,11840.1
2742349762,0.634766,2.223,95.4951,0.0821047,0.0924715,0.943268,-0.17394,5.14744,0.0308392,-1.06164,0.836171,0.221429,3.2,3.3,0,12235,49.17,24.08,11840.1
2742450144,0.634766,2.223,95.5068,0.0833029,0.101753,0.9444,-0.325826,5.08368,0.0311799,-1.40596,0.879541,-0.168382,3.2,3.3,0,12235,49.17,24.08,11840.1
2742550629,0.634766,2.223,95.5185,0.0718673,0.0908317,0.943738,-0.475367,5.01976,0.028455,-1.34629,0.82035,0.220802,3.2,3.3,0,12235,49.17,24.08,11840.1
2742651049,0.634766,2.223,95.5249,0.054401,0.0675715,0.942748,-0.603495,4.96961,0.0172004,-1.09097,0.752905,-0.170335,3.2,3.3,0,12235,49.17,24.08,11840.1
2742751456,0.634766,2.223,95.5254,0.0399792,0.0437356,0.940828,-0.699582,4.92918,0.00383889,-0.797928,0.534292,-0.206584,3.2,3.3,0,12235,49.17,24.08,11840.1
2742851822,0.634766,2.223,95.5251,0.0281269,0.0213024,0.939271,-0.768649,4.89149,-0.00146399,-0.575914,0.266416,-0.285706,3.2,3.3,0,12235,49.089,27.033,13270.2
2742952269,0.634766,2.223,95.5207,0.0214793,0.00173155,0.938648,-0.816032,4.86925,-0.00370086,-0.341538,0.190498,-0.0437857,4.4,4.7,0,12235,49.089,27.033,13270.2
2743052650,0.634766,2.223,95.5172,0.0315402,-0.029293,0.939126,-0.850935,4.85047,0.00283049,-0.301711,0.100131,0.468229,4.4,4.7,0,12235,49.089,27.033,13270.2
2743153055,0.634766,2.223,95.5156,0.120468,-0.122836,0.931774,-0.884182,4.88087,0.00514367,0.460845,0.661341,-0.560491,4.4,4.7,0,12235,49.089,27.033,13270.2
2743254316,0.634766,2.223,95.5151,0.192377,-0.185801,0.920704,-0.934076,5.0613,-0.0497585,1.28441,1.48153,0.357333,4.4,4.7,0,12235,49.089,27.033,13270.2
2743354678,0.634766,2.223,95.5073,0.217802,-0.216284,0.913841,-1.00502,5.32586,-0.0451791,1.72697,1.95972,0.887361,4.4,4.7,0,12235,49.089,27.033,13270.2
2743455026,0.634766,2.223,95.4942,0.202381,-0.214984,0.915098,-1.05763,5.61838,-0.0258564,1.9428,1.87354,1.17085,4.4,4.7,0,12235,49.089,27.033,13270.2
2743555382,0.634766,2.223,95.4795,0.171863,-0.195068,0.920576,-1.08601,5.88774,-0.00416968,1.8923,1.55284,1.02284,4.4,4.7,0,12235,49.089,27.033,13270.2
2743655714,0.634766,2.223,95.4649,0.14155,-0.167853,0.925522,-1.10705,6.10396,0.00339911,1.53273,1.29777,0.496883,4.4,4.7,0,12235,49.089,27.033,13270.2
2743756081,0.634766,2.223,95.4533,0.112399,-0.142257,0.929585,-1.11965,6.28335,6.2231e-05,1.29442,1.01625,0.596636,4.4,4.7,0,12235,49.089,27.033,13270.2
2743856434,0.634766,2.223,95.4415,0.0896662,-0.111656,0.933124,-1.11763,6.43039,0.0182898,1.03213,0.681222,0.674631,4.4,4.7,0,12235,49.081,26.474,12993.7
2743956843,0.634766,2.223,95.4436,0.0784481,-0.0861803,0.934956,-1.13112,6.53697,0.0301945,0.662229,0.658062,0.252178,-2,1.3,0,12235,49.081,26.474,12993.7
2744057189,0.634766,2.223,95.4503,0.0510175,-0.0337548,0.934925,-1.15761,6.62793,0.0334538,0.567278,0.603362,0.823157,-2,1.3,0,12235,49.081,26.474,12993.7
2744157596,0.634766,2.223,95.4641,-0.0684585,0.17078,0.9296,-1.17557,6.62969,0.107854,-0.528302,-0.103537,0.841914,-2,1.3,0,12235,49.081,26.474,12993.7
2744257947,0.634766,2.223,95.4847,-0.168627,0.30455,0.912172,-1.23608,6.33738,0.0978994,-2.94091,-1.42848,-0.0153874,-2,1.3,0,12235,49.081,26.474,12993.7
2744358310,0.634766,2.223,95.4868,-0.236347,0.374169,0.897789,-1.2802,5.93776,-0.0013065,-3.52973,-2.04791,1.24447,-2,1.3,0,12235,49.081,26.474,12993.7
2744458690,0.634766,2.223,95.4788,-0.274159,0.406905,0.89005,-1.3133,5.44058,-0.0356516,-3.87497,-2.46501,1.99018,-2,1.3,0,12235,49.081,26.474,12993.7
2744559058,0.634766,2.223,95.472,-0.28782,0.413448,0.889478,-1.35022,4.90742,-0.0687163,-3.89922,-2.42455,2.87242,-2,1.3,0,12235,49.081,26.474,12993.7
2744659418,0.634766,2.223,95.4613,-0.278472,0.409361,0.892997,-1.36258,4.35241,-0.0590928,-4.12397,-2.73283,2.29572,-2,1.3,0,12235,49.081,26.474,12993.7
2744759760,0.634766,2.223,95.4337,-0.250784,0.395338,0.901315,-1.38485,3.8193,-0.0524311,-3.67973,-2.4622,2.80476,-2,1.3,0,12235,49.081,26.474,12993.7
2744860093,0.634766,2.223,95.4081,-0.215991,0.381781,0.907232,-1.41358,3.30981,-0.0208818,-3.58432,-2.24694,2.55954,-2,1.3,0,12235,49.152,24.173,11881.5
2744960421,0.634766,2.223,95.4049,-0.18837,0.374738,0.909841,-1.46637,2.82661,0.0195168,-3.54197,-2.05191,2.22819,-4.5,-1.2,0,12235,49.152,24.173,11881.5
2745060772,0.634766,2.223,95.4063,-0.170656,0.362389,0.911076,-1.53819,2.37721,0.0381031,-3.45492,-1.70063,1.90745,-4.5,-1.2,0,12235,49.152,24.173,11881.5
2745161185,0.634766,2.223,95.4182,-0.195952,0.329935,0.906745,-1.59728,1.96532,0.0565856,-3.05095,-1.69838,1.52681,-4.5,-1.2,0,12235,49.152,24.173,11881.5
2745261517,0.634766,2.223,95.4336,-0.21309,0.312539,0.905591,-1.61772,1.5705,0.0559579,-2.9903,-1.93519,0.993728,-4.5,-1.2,0,12235,49.152,24.173,11881.5
2745361883,0.634766,2.223,95.4625,-0.222432,0.301853,0.906299,-1.61144,1.18752,0.0459865,-2.66227,-2.05603,1.20762,-4.5,-1.2,0,12235,49.152,24.173,11881.5
2745462231,0.634765,2.223,95.4908,-0.225929,0.298481,0.907673,-1.59353,0.820034,0.0503375,-2.60776,-2.07534,0.997766,-4.5,-1.2,0,12235,49.152,24.173,11881.5
2745562538,0.634765,2.223,95.5072,-0.225969,0.299669,0.908115,-1.57898,0.458135,0.0489353,-2.55463,-1.99959,0.925748,-4.5,-1.2,0,12235,49.152,24.173,11881.5
2745662887,0.634765,2.223,95.5239,-0.223395,0.300047,0.908776,-1.56232,0.10557,0.0348869,-2.49012,-1.99099,0.997823,-4.5,-1.2,0,12235,49.152,24.173,11881.5
2745763236,0.634765,2.223,95.5407,-0.218968,0.297707,0.909861,-1.54467,-0.240996,0.0311669,-2.38406,-1.92135,1.20423,-4.5,-1.2,0,12235,49.152,24.173,11881.5
2745863590,0.634765,2.223,95.5597,-0.214594,0.295935,0.910073,-1.53228,-0.567995,0.0282939,-2.4285,-1.90006,0.835436,-4.5,-1.2,0,12235,49.152,24.173,11881.5
2745963998,0.634765,2.223,95.5605,-0.207578,0.296052,0.910099,-1.52068,-0.888213,0.0158828,-2.41461,-1.93344,0.815717,0.9,-3.1,0,12235,49.145,25.354,12460.2
2746064407,0.634765,2.223,95.5605,-0.204615,0.2825,0.909584,-1.52252,-1.19766,-0.0040592,-2.4162,-1.76263,0.688788,0.9,-3.1,0,12235,49.145,25.354,12460.2
2746164776,0.634765,2.223,95.5658,-0.242296,0.0727519,0.920778,-1.51695,-1.51885,0.0552697,-2.12947,-1.72715,1.58806,0.9,-3.1,0,12235,49.145,25.354,12460.2
2746265124,0.634765,2.223,95.577,-0.266506,-0.178916,0.959442,-1.27312,-1.59155,0.101416,1.14258,-2.36964,0.466906,0.9,-3.1,0,12235,49.145,25.354,12460.2
2746365441,0.634765,2.223,95.5782,-0.275857,-0.299794,0.988812,-0.933892,-1.48274,0.0116073,2.96221,-2.25277,0.233785,0.9,-3.1,0,12235,49.145,25.354,12460.2
2746465792,0.634765,2.223,95.5682,-0.277807,-0.339347,1.00268,-0.541302,-1.30012,-0.0687921,3.4567,-1.99978,1.73816,0.9,-3.1,0,12235,49.145,25.354,12460.2
2746567438,0.634765,2.223,95.5463,-0.274078,-0.330486,1.0054,-0.101241,-1.09197,-0.0822973,3.75308,-2.23186,1.72767,0.9,-3.1,0,12235,49.145,25.354,12460.2
2746670696,0.634765,2.223,95.5179,-0.279645,-0.299642,1.0011,0.399464,-0.854832,-0.0873299,3.475,-2.02217,1.97695,0.9,-3.1,0,12235,49.145,25.354,12460.2
2746771092,0.634765,2.223,95.4828,-0.297349,-0.268694,0.995939,0.821912,-0.692989,-0.0626084,3.17658,-2.20226,2.10574,0.9,-3.1,0,12235,49.145,25.354,12460.2
2746871438,0.634765,2.223,95.4475,-0.310067,-0.229748,0.989082,1.24058,-0.563912,-0.0587084,2.92647,-2.4524,1.80187,0.9,-3.1,0,12235,49.145,25.354,12460.2
2746971823,0.634765,2.223,95.4407,-0.297465,-0.179143,0.976851,1.62773,-0.482879,-0.0410743,2.25296,-2.39523,1.80638,4.5,2.1,0,12235,49.127,27.615,13566.4
2747072223,0.634765,2.223,95.435,-0.249369,-0.133447,0.961233,1.96013,-0.43979,-0.0114681,1.71415,-2.2507,1.55167,4.5,2.1,0,12235,49.127,27.615,13566.4
2747172630,0.634765,2.223,95.4392,-0.0184769,-0.164745,0.931324,2.20986,-0.390601,0.112787,1.38481,-1.26594,1.02401,4.5,2.1,0,12235,49.127,27.615,13566.4
2747273025,0.634765,2.223,95.4589,0.217848,-0.232845,0.905756,2.21932,-0.11948,0.0893158,2.10639,1.75151,-0.130675,4.5,2.1,0,12235,49.127,27.615,13566.4
2747373384,0.634766,2.223,95.4848,0.337666,-0.268166,0.892807,2.11978,0.30081,-0.0111614,2.47689,3.17872,1.16052,4.5,2.1,0,12235,49.127,27.615,13566.4
2747473752,0.634766,2.223,95.5051,0.38781,-0.283962,0.888498,1.96884,0.824478,-0.024901,2.77998,3.81104,2.20372,4.5,2.1,0,12235,49.127,27.615,13566.4
2747574102,0.634766,2.223,95.5131,0.39814,-0.284542,0.891218,1.78635,1.36762,-0.0532723,2.79809,4.13112,2.06046,4.5,2.1,0,12235,49.127,27.615,13566.4
2747674430,0.634766,2.223,95.5183,0.384063,-0.278763,0.897778,1.58492,1.91172,-0.0554592,2.56228,4.04004,2.69697,4.5,2.1,0,12235,49.127,27.615,13566.4
2747774788,0.634766,2.223,95.5049,0.350811,-0.270702,0.904844,1.39632,2.44181,-0.0286816,2.59386,3.85822,2.40855,4.5,2.1,0,12235,49.127,27.615,13566.4
2747875126,0.634766,2.223,95.4952,0.312669,-0.270086,0.90851,1.22174,2.93228,-0.00276578,2.43649,3.52267,2.14334,4.5,2.1,0,12235,49.127,27.615,13566.4
2747975480,0.634766,2.223,95.4871,0.263159,-0.258865,0.915676,1.08617,3.38075,0.00747029,2.40726,3.05689,1.77862,2.7,-0.2,0,12191,49.034,26.664,13074.4
2748075866,0.634766,2.223,95.4762,0.175784,-0.210866,0.930151,0.982721,3.79224,0.0292059,2.31877,2.5819,1.64177,2.7,-0.2,0,12191,49.034,26.664,13074.4
2748176273,0.634766,2.223,95.4702,-0.0636225,-0.040894,0.949717,0.929114,4.06599,0.0969676,1.36638,1.33528,0.798126,2.7,-0.2,0,12191,49.034,26.664,13074.4
2748277211,0.634766,2.223,95.4755,-0.252759,0.0839672,0.929738,0.978282,3.96819,0.0804017,-0.845055,-1.64928,-0.529434,2.7,-0.2,0,12191,49.034,26.664,13074.4
2748383670,0.634766,2.223,95.4899,-0.318212,0.121334,0.915277,1.09139,3.72385,-0.0179116,-1.33821,-2.55549,0.913973,2.7,-0.2,0,12191,49.034,26.664,13074.4
2748488422,0.634766,2.223,95.4987,-0.307022,0.12239,0.911981,1.22707,3.42517,-0.0128268,-1.53264,-2.92787,1.11547,2.7,-0.2,0,12191,49.034,26.664,13074.4
2748588719,0.634766,2.223,95.513,-0.259743,0.100909,0.916913,1.36403,3.10555,0.00318341,-1.31544,-2.42574,0.886082,2.7,-0.2,0,12191,49.034,26.664,13074.4
2748689078,0.634766,2.223,95.5254,-0.208124,0.071699,0.923438,1.44667,2.90527,0.000349665,-1.06557,-1.91543,0.256777,2.7,-0.2,0,12191,49.034,26.664,13074.4
2748789426,0.634766,2.223,95.5299,-0.166594,0.0492449,0.928034,1.50936,2.75137,-0.00654465,-0.741895,-1.44275,0.128816,2.7,-0.2,0,12191,49.034,26.664,13074.4
2748889789,0.634766,2.223,95.5347,-0.137113,0.0332107,0.931068,1.55437,2.62842,0.00178764,-0.589138,-1.10395,-0.0742041,2.7,-0.2,0,12191,49.034,26.664,13074.4
2748990175,0.634766,2.223,95.5456,-0.112057,0.0187909,0.933278,1.59041,2.53037,0.000804145,-0.427972,-0.818556,-0.0721527,5,1.2,0,12191,48.906,27.99,13688.8
2749090524,0.634766,2.223,95.5621,-0.0798968,-0.00813526,0.936582,1.61743,2.44099,0.00110363,-0.48625,-0.614155,0.589531,5,1.2,0,12191,48.906,27.99,13688.8
2749190880,0.634766,2.223,95.5591,0.0286171,-0.14333,0.931928,1.62135,2.42729,0.0477957,0.424817,0.154122,-0.215263,5,1.2,0,12191,48.906,27.99,13688.8
2749291210,0.634766,2.223,95.5614,0.128897,-0.26212,0.91931,1.62651,2.61075,-0.0354374,1.90573,1.32519,-0.467349,5,1.2,0,12191,48.906,27.99,13688.8
2749391552,0.634766,2.223,95.5643,0.174908,-0.330851,0.912428,1.62706,2.94169,-0.0568025,2.67597,1.92635,1.3451,5,1.2,0,12191,48.906,27.99,13688.8
2749491955,0.634766,2.223,95.5637,0.163513,-0.34011,0.916676,1.64767,3.32061,-0.0436398,3.02875,1.98451,1.31235,5,1.2,0,12191,48.906,27.99,13688.8
2749592331,0.634766,2.223,95.5431,0.12541,-0.311068,0.924972,1.66645,3.67373,-0.0321987,2.73623,1.79322,1.39285,5,1.2,0,12191,48.906,27.99,13688.8
2749692764,0.634766,2.223,95.5132,0.0862763,-0.273884,0.931053,1.70033,3.96338,-0.019147,2.33489,1.33084,1.07348,5,1.2,0,12191,48.906,27.99,13688.8
2749793068,0.634766,2.223,95.5026,0.0503966,-0.236184,0.934345,1.7431,4.19301,-0.0130622,1.97032,0.895587,0.663851,5,1.2,0,12191,48.906,27.99,13688.8
2749893482,0.634766,2.223,95.4915,0.0269433,-0.205316,0.935847,1.78183,4.37402,-0.0126045,1.51274,0.68655,0.543663,5,1.2,0,12191,48.906,27.99,13688.8
2749993884,0.634766,2.223,95.4781,0.01107,-0.18141,0.937278,1.82614,4.52815,0.00281098,1.36979,0.475465,0.460161,-2.9,5,0,12191,48.937,28.11,13756.2
2750094249,0.634766,2.223,95.4715,0.0116674,-0.132964,0.938849,1.87166,4.65759,0.0171956,1.20638,0.271389,0.966983,-2.9,5,0,12191,48.937,28.11,13756.2
