timestamp,lat,log,alt,roll,pitch,yaw,vel_x,vel_y,vel_z,acc_x,acc_y,acc_z,act_vx,act_vy,act_yr,capacity,vol,cur,power
4036530843,0.634768,2.223,97.6072,-0.0223676,0.0218792,0.899819,0.0167131,0.0840776,0.00945633,0.091311,0.132218,-0.108568,5,0.5,0,12521,49.712,25.225,12539.9
4036631328,0.634768,2.223,97.6052,-0.0265472,0.0229755,0.89985,0.0131135,0.090216,0.0118327,0.0431058,0.11427,0.14422,5,0.5,0,12521,49.712,25.225,12539.9
4036731655,0.634768,2.223,97.6151,-0.0299724,0.0187608,0.900556,0.0282248,0.0953758,0.0190636,0.155273,-0.0301073,0.213588,5,0.5,0,12521,49.712,25.225,12539.9
4036832082,0.634768,2.223,97.6234,-0.0158615,-0.125354,0.900766,0.0352985,0.0961322,0.0522727,0.319004,0.0210866,0.283991,5,0.5,0,12521,49.712,25.225,12539.9
4036932405,0.634768,2.223,97.6326,0.00663087,-0.301902,0.897221,0.161442,0.290641,0.0171798,2.56039,0.283428,-0.0595328,5,0.5,0,12521,49.68,25.306,12572
4037032904,0.634768,2.223,97.6389,0.020137,-0.387389,0.894638,0.354771,0.596196,-0.0416919,3.58367,0.451135,1.04042,5,0.5,0,12521,49.68,25.306,12572
4037133264,0.634768,2.223,97.632,0.0281165,-0.4352,0.892957,0.610602,0.992531,-0.0506538,4.30388,0.509257,1.8673,5,0.5,0,12521,49.68,25.306,12572
4037233633,0.634768,2.223,97.6153,0.0289544,-0.442658,0.89219,0.875883,1.41052,-0.0319338,4.19655,0.47205,2.46809,5,0.5,0,12521,49.68,25.306,12572
4037334012,0.634768,2.223,97.5965,0.0230214,-0.433187,0.892205,1.1335,1.82372,-0.0153599,4.27828,0.531552,2.02623,5,0.5,0,12521,49.68,25.306,12572
4037434373,0.634768,2.223,97.5773,0.0152357,-0.419572,0.892681,1.38988,2.23164,-0.00655941,4.16493,0.495434,2.15003,5,0.5,0,12521,49.68,25.306,12572
4037534751,0.634768,2.223,97.568,0.00965948,-0.407062,0.893231,1.64319,2.59745,0.00476153,3.90156,0.30848,1.97524,4.1,-4,0,12521,49.68,25.306,12572
4037635142,0.634768,2.223,97.5746,-0.0153601,-0.347191,0.898547,1.88275,2.94644,0.0251707,3.59006,0.257945,1.87031,4.1,-4,0,12521,49.68,25.306,12572
4037735511,0.634768,2.223,97.5893,-0.180961,-0.194337,0.920788,2.10644,3.21304,0.154272,2.85232,-0.327821,1.12835,4.1,-4,0,12521,49.68,25.306,12572
4037836246,0.634768,2.223,97.611,-0.323562,-0.0807447,0.913376,2.33443,3.17085,0.0902907,0.95311,-2.4033,-0.432327,4.1,-4,0,12521,49.68,25.306,12572
4037937607,0.634768,2.223,97.6273,-0.411506,-0.0250882,0.899301,2.59821,2.99304,0.0029626,0.064974,-3.06847,1.28786,4.1,-4,0,12521,49.704,25.619,12733.7
4038038899,0.634768,2.223,97.6593,-0.441989,-0.00362354,0.890222,2.92903,2.71515,0.0169618,-0.164446,-3.90482,1.76857,4.1,-4,0,12521,49.704,25.619,12733.7
4038139250,0.634768,2.223,97.6929,-0.447374,0.00209148,0.885144,3.23585,2.42716,0.00900918,-0.397774,-3.90362,1.70393,4.1,-4,0,12521,49.704,25.619,12733.7
4038240679,0.634768,2.223,97.7148,-0.444159,-0.00583314,0.886417,3.5286,2.14091,0.00118772,-0.342819,-3.76509,1.61748,4.1,-4,0,12521,49.704,25.619,12733.7
4038345966,0.634768,2.223,97.726,-0.433991,-0.0191635,0.890023,3.82989,1.86285,-0.0190514,-0.234457,-3.73342,1.66288,4.1,-4,0,12521,49.704,25.619,12733.7
4038446239,0.634768,2.223,97.7323,-0.417858,-0.0375087,0.895589,4.13055,1.59504,-0.0344706,-0.119019,-3.64569,1.51032,4.1,-4,0,12521,49.704,25.619,12733.7
4038546535,0.634768,2.223,97.7372,-0.372318,-0.0524656,0.89883,4.42612,1.35775,-0.0175013,0.0773105,-3.2795,1.55531,-2.6,4.9,0,12521,49.704,25.619,12733.7
4038646829,0.634768,2.223,97.7374,-0.308499,-0.0485413,0.89824,4.67505,1.16883,-0.0180791,0.220576,-2.78053,0.936657,-2.6,4.9,0,12521,49.704,25.619,12733.7
4038747182,0.634768,2.223,97.7393,-0.095449,0.0868629,0.893789,4.89772,1.00978,0.0929137,0.127909,-2.09863,1.38539,-2.6,4.9,0,12521,49.704,25.619,12733.7
4038847577,0.634769,2.223,97.7595,0.190987,0.219674,0.919515,4.75822,0.879544,0.164899,-1.81569,0.831402,0.762277,-2.6,4.9,0,12521,49.704,25.619,12733.7
4038947925,0.634769,2.223,97.7866,0.358509,0.274823,0.947046,4.25277,0.838719,0.0737947,-2.85969,3.62296,0.168864,-2.6,4.9,0,12521,49.649,25.297,12559.7
4039048316,0.634769,2.223,97.8098,0.417763,0.284422,0.955624,3.74761,0.851896,-0.0659581,-2.6273,3.85069,2.10101,-2.6,4.9,0,12521,49.649,25.297,12559.7
4039148640,0.634769,2.223,97.817,0.430394,0.286803,0.95863,3.17204,0.898573,-0.117181,-2.78954,4.53831,1.89807,-2.6,4.9,0,12521,49.649,25.297,12559.7
4039248935,0.634769,2.223,97.823,0.435569,0.293285,0.962198,2.64036,0.938962,-0.219249,-2.66007,4.21258,1.81793,-2.6,4.9,0,12521,49.649,25.297,12559.7
4039349644,0.634769,2.223,97.8178,0.426524,0.311972,0.970589,2.03105,0.967521,-0.24909,-2.89815,4.26557,2.99017,-2.6,4.9,0,12521,49.649,25.297,12559.7
4039450931,0.634769,2.223,97.777,0.393608,0.317057,0.970671,1.38831,0.974802,-0.23667,-3.08203,4.28657,3.12177,-2.6,4.9,0,12521,49.649,25.297,12559.7
4039551329,0.634769,2.223,97.7378,0.357007,0.306668,0.963739,0.769006,0.934495,-0.183313,-3.10459,3.58719,3.62803,4.3,-1.6,0,12521,49.649,25.297,12559.7
4039651667,0.634769,2.223,97.71,0.327458,0.272658,0.948422,0.188417,0.904708,-0.108616,-3.09737,3.58295,2.69202,4.3,-1.6,0,12521,49.649,25.297,12559.7
4039752066,0.634769,2.223,97.6908,0.15494,0.0779583,0.90864,-0.311463,0.911219,-0.0110897,-2.31095,3.12829,1.79776,4.3,-1.6,0,12521,49.649,25.297,12559.7
4039852413,0.634769,2.223,97.6738,-0.0852139,-0.181345,0.910567,-0.407224,0.987768,0.0111226,0.72379,0.626327,-0.0500833,4.3,-1.6,0,12521,49.649,25.297,12559.7
4039952785,0.634769,2.223,97.6686,-0.233574,-0.321905,0.939673,-0.145006,1.12104,-0.0450477,2.96142,-1.55624,0.560785,4.3,-1.6,0,12521,49.649,25.297,12559.7
4040053135,0.634769,2.223,97.6842,-0.310484,-0.389246,0.96087,0.261278,1.27526,-0.0752948,3.62748,-2.24739,2.08355,4.3,-1.6,0,12521,49.605,28.989,14380
4040153446,0.634769,2.223,97.6976,-0.341585,-0.406914,0.9665,0.768597,1.43852,-0.064727,3.98567,-2.68004,2.82861,4.3,-1.6,0,12521,49.605,28.989,14380
4040253738,0.634769,2.223,97.6842,-0.344163,-0.399684,0.963318,1.30346,1.58496,-0.0548971,3.94982,-2.87876,2.90821,4.3,-1.6,0,12521,49.605,28.989,14380
4040354206,0.634769,2.223,97.6696,-0.334428,-0.385572,0.95706,1.82753,1.71403,-0.0470058,3.59208,-2.74362,2.96768,4.3,-1.6,0,12521,49.605,28.989,14380
4040455264,0.634769,2.223,97.665,-0.305486,-0.36094,0.948708,2.33016,1.84396,-0.00945716,3.50896,-2.589,2.69961,4.3,-1.6,0,12521,49.605,28.989,14380
4040556470,0.634769,2.223,97.6647,-0.247759,-0.307995,0.933752,2.77331,1.95503,0.023357,3.06515,-2.35098,1.90037,3.3,1,0,12521,49.605,28.989,14380
4040656831,0.634769,2.223,97.6721,-0.154988,-0.248959,0.912776,3.12208,2.05449,0.0533076,2.41552,-1.795,1.56141,3.3,1,0,12521,49.605,28.989,14380
4040757192,0.634769,2.223,97.6888,0.100672,-0.124004,0.884026,3.3578,2.17189,0.122003,1.83514,-0.544379,0.689107,3.3,1,0,12521,49.605,28.989,14380
4040857541,0.634769,2.223,97.7139,0.286421,-0.000321686,0.89789,3.22998,2.35008,0.152451,0.186513,2.50343,0.10389,3.3,1,0,12521,49.605,28.989,14380
4040957906,0.634769,2.223,97.7466,0.345997,0.0533649,0.914462,2.95161,2.5153,0.0385336,-0.738639,3.75557,-0.59271,3.3,1,0,12521,49.605,28.989,14380
4041058264,0.634769,2.223,97.7712,0.331002,0.0628834,0.918889,2.62884,2.67442,-0.0571982,-0.946833,3.54665,0.998463,3.3,1,0,12521,49.741,25.55,12708.8
4041158609,0.634769,2.223,97.7832,0.270992,0.0595587,0.919063,2.30838,2.82334,-0.0629815,-0.92727,3.27126,1.12354,3.3,1,0,12521,49.741,25.55,12708.8
4041258970,0.634769,2.223,97.7913,0.200429,0.0471663,0.915758,2.07162,2.92634,-0.0777599,-0.771008,2.51323,0.173724,3.3,1,0,12521,49.741,25.55,12708.8
4041359340,0.634769,2.223,97.791,0.141922,0.036165,0.912222,1.88359,3.00241,-0.0866834,-0.643999,1.90677,0.202259,3.3,1,0,12521,49.741,25.55,12708.8
4041459688,0.634769,2.223,97.7697,0.0984224,0.0234301,0.9086,1.73011,3.05221,-0.077624,-0.609566,1.42534,0.329945,3.3,1,0,12521,49.741,25.55,12708.8
4041560116,0.634769,2.223,97.7568,0.0698879,0.00821528,0.904136,1.61154,3.08504,-0.0763049,-0.463478,1.12525,-0.0387746,0.8,0.4,0,12521,49.741,25.55,12708.8
4041660498,0.634769,2.223,97.7569,0.0486159,0.00787236,0.899673,1.51224,3.11315,-0.0692336,-0.343005,0.829972,0.159692,0.8,0.4,0,12521,49.741,25.55,12708.8
4041760908,0.634769,2.223,97.7512,-0.0117478,0.16713,0.896892,1.4304,3.14449,-0.012772,-0.505099,0.623782,0.54384,0.8,0.4,0,12521,49.741,25.55,12708.8
4041861279,0.634769,2.223,97.7437,-0.0633027,0.297538,0.889042,1.26796,2.94565,-0.0406712,-2.71166,-0.169634,-0.205857,0.8,0.4,0,12521,49.741,25.55,12708.8
4041961759,0.634769,2.223,97.7339,-0.0856176,0.350438,0.884331,1.0725,2.63054,-0.101039,-3.44708,-0.535076,1.10802,0.8,0.4,0,12521,49.741,25.55,12708.8
4042062093,0.634769,2.223,97.7193,-0.0869635,0.33969,0.884127,0.868228,2.27444,-0.107122,-3.64746,-0.587633,1.39766,0.8,0.4,0,12521,49.398,30.456,15044.7
4042162471,0.634769,2.223,97.7079,-0.0734879,0.288912,0.887394,0.677113,1.93972,-0.0940585,-3.38777,-0.575968,1.17723,0.8,0.4,0,12521,49.398,30.456,15044.7
4042262827,0.634769,2.223,97.705,-0.0566077,0.227027,0.891304,0.518223,1.66978,-0.0688158,-2.70985,-0.411033,1.03382,0.8,0.4,0,12521,49.398,30.456,15044.7
4042363191,0.634769,2.223,97.7047,-0.0479248,0.16608,0.894817,0.395182,1.46635,-0.0459863,-2.11639,-0.2536,0.405985,0.8,0.4,0,12521,49.398,30.456,15044.7
4042463569,0.634769,2.223,97.697,-0.0430242,0.118195,0.897403,0.309712,1.31967,-0.0434719,-1.45832,-0.151334,0.44625,0.8,0.4,0,12521,49.398,30.456,15044.7
4042563999,0.634769,2.223,97.6915,-0.0398773,0.0808306,0.898573,0.249898,1.21235,-0.0262237,-0.994438,-0.177952,0.0438051,-2.7,-4.2,0,12521,49.398,30.456,15044.7
4042664428,0.634769,2.223,97.6911,-0.0458878,0.0622861,0.898311,0.210464,1.13335,-0.0300777,-0.697594,-0.0896988,0.0587146,-2.7,-4.2,0,12521,49.398,30.456,15044.7
4042764787,0.634769,2.223,97.6905,-0.138498,0.118164,0.890411,0.187207,1.06246,0.00835271,-0.72681,-0.329307,-0.0549256,-2.7,-4.2,0,12521,49.398,30.456,15044.7
4042865165,0.634769,2.223,97.6863,-0.246586,0.176269,0.877785,0.199272,0.860118,-0.0387362,-1.4473,-1.40856,0.280687,-2.7,-4.2,0,12521,49.398,30.456,15044.7
4042965491,0.634769,2.223,97.6739,-0.317179,0.213449,0.867118,0.267515,0.539882,-0.0530871,-1.92721,-2.30291,1.26478,-2.7,-4.2,0,12521,49.398,30.456,15044.7
4043065861,0.634769,2.223,97.6679,-0.350107,0.231935,0.861598,0.368529,0.156188,-0.050299,-2.06687,-2.78321,1.80937,-2.7,-4.2,0,12521,49.686,25.655,12746.9
4043166206,0.634769,2.223,97.6603,-0.361261,0.238307,0.860117,0.479335,-0.249751,-0.0383833,-2.21916,-2.97477,1.65969,-2.7,-4.2,0,12521,49.686,25.655,12746.9
4043266521,0.634769,2.223,97.6615,-0.359951,0.239962,0.860429,0.585451,-0.656535,-0.0242717,-2.24436,-2.87497,1.86252,-2.7,-4.2,0,12521,49.686,25.655,12746.9
4043367776,0.634769,2.223,97.6703,-0.352176,0.238678,0.861473,0.696059,-1.05935,-0.0166181,-2.2523,-2.93649,1.62614,-2.7,-4.2,0,12521,49.686,25.655,12746.9
4043474089,0.634769,2.223,97.6731,-0.34242,0.236003,0.862713,0.81617,-1.52878,-0.00609655,-2.15884,-2.71137,1.65187,-2.7,-4.2,0,12521,49.686,25.655,12746.9
4043574480,0.634769,2.223,97.6791,-0.333231,0.231927,0.86376,0.90967,-1.8848,-0.00379967,-2.01253,-2.54617,1.36099,-4.7,3.3,0,12521,49.686,25.655,12746.9
4043675772,0.63477,2.223,97.6853,-0.299456,0.227876,0.865942,0.99351,-2.2358,0.00148908,-2.01007,-2.49704,1.46069,-4.7,3.3,0,12521,49.686,25.655,12746.9
4043776117,0.63477,2.223,97.695,-0.0702613,0.221738,0.902319,1.0462,-2.5997,0.164373,-2.0818,-1.87953,2.03318,-4.7,3.3,0,12521,49.686,25.655,12746.9
4043876492,0.63477,2.223,97.7124,0.233289,0.199836,0.931438,0.880098,-2.69539,0.18608,-1.69777,1.19489,0.692017,-4.7,3.3,0,12521,49.686,25.655,12746.9
4043976972,0.63477,2.223,97.7268,0.386549,0.186039,0.93161,0.51861,-2.5988,0.105226,-1.6438,3.99138,-0.243505,-4.7,3.3,0,12521,49.686,25.655,12746.9
4044077346,0.63477,2.223,97.7307,0.429951,0.185662,0.927322,0.134643,-2.44506,-0.106215,-1.34363,4.25707,0.90131,-4.7,3.3,0,12521,49.617,25.039,12423.6
4044177667,0.63477,2.223,97.7272,0.437489,0.188786,0.923436,-0.349232,-2.25324,-0.148675,-1.48434,4.63275,2.17747,-4.7,3.3,0,12521,49.617,25.039,12423.6
4044278019,0.63477,2.223,97.7205,0.417927,0.196277,0.921168,-0.85049,-2.06,-0.156533,-1.53564,4.52641,2.45966,-4.7,3.3,0,12521,49.617,25.039,12423.6
4044378361,0.63477,2.223,97.6907,0.390088,0.208135,0.922315,-1.33549,-1.87511,-0.127022,-1.41372,4.27162,2.49053,-4.7,3.3,0,12521,49.617,25.039,12423.6
4044478709,0.63477,2.223,97.6626,0.365502,0.22118,0.924774,-1.79933,-1.7183,-0.107892,-1.60051,3.97679,2.16998,-4.7,3.3,0,12521,49.617,25.039,12423.6
4044579168,0.634769,2.223,97.6628,0.341313,0.235408,0.927858,-2.25655,-1.60262,-0.0771968,-1.78782,3.65798,2.11695,-0.3,0.2,0,12521,49.617,25.039,12423.6
4044679525,0.634769,2.223,97.6579,0.3084,0.23684,0.925105,-2.69017,-1.50848,-0.0592906,-1.81504,3.38359,1.65845,-0.3,0.2,0,12521,49.617,25.039,12423.6
4044779842,0.634769,2.223,97.6518,0.175234,0.0706263,0.901377,-3.12526,-1.44717,0.0402994,-1.87169,3.03484,2.39303,-0.3,0.2,0,12521,49.617,25.039,12423.6
4044880288,0.634769,2.223,97.6608,-0.0576515,-0.198091,0.908346,-3.24769,-1.29548,0.0928844,0.768674,1.27938,0.243082,-0.3,0.2,0,12521,49.617,25.039,12423.6
4044980647,0.634769,2.223,97.6793,-0.224218,-0.344634,0.942666,-2.97203,-1.09642,0.0473993,3.52326,-1.48352,-0.297126,-0.3,0.2,0,12521,49.617,25.039,12423.6
4045081017,0.634769,2.223,97.687,-0.297232,-0.376511,0.958071,-2.55701,-0.898602,-0.0900861,4.07758,-2.32737,1.41658,-0.3,0.2,0,12521,49.617,25.039,12423.6
4045181373,0.634769,2.223,97.6788,-0.295925,-0.345187,0.951267,-2.04769,-0.707413,-0.0996079,4.10747,-2.63985,2.29484,-0.3,0.2,0,12521,49.575,26.663,13218.2
4045281730,0.634769,2.223,97.6655,-0.238533,-0.276677,0.933002,-1.58966,-0.544006,-0.0806108,3.5452,-2.19419,2.05872,-0.3,0.2,0,12521,49.575,26.663,13218.2
4045382043,0.634769,2.223,97.6287,-0.171547,-0.199524,0.917014,-1.23501,-0.411174,-0.0536803,2.77495,-1.75512,1.48336,-0.3,0.2,0,12521,49.575,26.663,13218.2
4045482339,0.634769,2.223,97.597,-0.119893,-0.134656,0.907416,-0.986152,-0.306536,-0.0179654,1.9862,-1.1184,0.953578,-0.3,0.2,0,12521,49.575,26.663,13218.2
4045582750,0.634769,2.223,97.6018,-0.0906233,-0.0847882,0.902311,-0.825393,-0.228947,-0.000460424,1.32269,-0.662821,0.436558,-1.8,4.1,0,12521,49.575,26.663,13218.2
4045683092,0.634769,2.223,97.6,-0.0625736,-0.0445728,0.898306,-0.70858,-0.172446,-0.0089988,0.86765,-0.403856,0.226403,-1.8,4.1,0,12521,49.575,26.663,13218.2
4045783455,0.634769,2.223,97.5983,0.110911,0.0430414,0.90073,-0.619134,-0.132228,0.0316337,0.540814,-0.101862,0.424772,-1.8,4.1,0,12521,49.575,26.663,13218.2
4045883862,0.634769,2.223,97.6053,0.269178,0.113739,0.915102,-0.778012,-0.034172,0.018699,-0.566374,2.24215,-0.0445309,-1.8,4.1,0,12521,49.575,26.663,13218.2
4045984203,0.634769,2.223,97.6106,0.35705,0.151554,0.926813,-1.0782,0.0958167,-0.0286265,-1.00224,3.20438,1.00832,-1.8,4.1,0,12521,49.575,26.663,13218.2
4046084503,0.634769,2.223,97.6191,0.392855,0.170137,0.932924,-1.47828,0.251959,-0.0388703,-1.27028,3.78384,2.00463,-1.8,4.1,0,12521,49.575,26.663,13218.2
4046184858,0.634769,2.223,97.6382,0.403543,0.17936,0.935965,-1.91588,0.397278,-0.0184137,-1.54817,3.95257,2.09741,-1.8,4.1,0,12521,49.56,28.039,13896.1
4046285233,0.634769,2.223,97.6575,0.401223,0.181544,0.936413,-2.35119,0.544513,-0.00710941,-1.47993,3.97756,1.97578,-1.8,4.1,0,12521,49.56,28.039,13896.1
4046385590,0.634769,2.223,97.664,0.367763,0.170927,0.931111,-2.79078,0.685863,0.0012052,-1.50537,4.0124,1.79747,-1.8,4.1,0,12521,49.56,28.039,13896.1
4046485945,0.634769,2.223,97.6744,0.311793,0.148466,0.922745,-3.17228,0.811559,0.0209301,-1.23609,3.4043,1.43137,-1.8,4.1,0,12521,49.56,28.039,13896.1
4046586324,0.634769,2.223,97.6859,0.250453,0.12548,0.915712,-3.48236,0.917607,0.0341425,-1.00065,2.84663,0.884202,-4.3,4.8,0,12521,49.56,28.039,13896.1
4046686690,0.634769,2.223,97.6923,0.192582,0.117062,0.911295,-3.72407,0.998919,0.0318303,-0.750633,2.12567,0.557734,-4.3,4.8,0,12521,49.56,28.039,13896.1
4046787115,0.634769,2.223,97.7018,0.150104,0.192408,0.911509,-3.91371,1.04894,0.0490302,-0.861192,1.55304,0.339305,-4.3,4.8,0,12521,49.56,28.039,13896.1
4046887495,0.634769,2.223,97.7086,0.13806,0.278996,0.920598,-4.12651,0.99894,0.00256384,-1.84589,1.23928,-0.0255721,-4.3,4.8,0,12521,49.56,28.039,13896.1
4046987870,0.634769,2.223,97.7026,0.133686,0.336327,0.928052,-4.43994,0.842758,-0.0338704,-2.50366,1.06807,1.10439,-4.3,4.8,0,12521,49.56,28.039,13896.1
4047088281,0.634768,2.223,97.7009,0.135872,0.366405,0.933996,-4.74474,0.662917,-0.0276315,-3.00809,1.06222,1.22414,-4.3,4.8,0,12521,49.56,28.039,13896.1
4047188644,0.634768,2.223,97.7068,0.141503,0.371591,0.936306,-5.04981,0.46296,-0.0376971,-3.19311,1.04861,1.22673,-4.3,4.8,0,12521,49.488,28.987,14345.1
4047288993,0.634768,2.223,97.7078,0.134113,0.340171,0.932698,-5.35501,0.281556,-0.0278502,-2.97204,1.11817,1.11222,-4.3,4.8,0,12521,49.488,28.987,14345.1
4047389351,0.634768,2.223,97.7027,0.119525,0.297908,0.926923,-5.60775,0.122493,-0.0180056,-2.56111,0.915167,0.819466,-4.3,4.8,0,12521,49.488,28.987,14345.1
4047489710,0.634768,2.223,97.7013,0.107522,0.256527,0.921704,-5.82097,-0.00685355,-0.0159478,-2.0873,0.822914,0.740207,-4.3,4.8,0,12521,49.488,28.987,14345.1
4047590128,0.634768,2.223,97.698,0.093556,0.218109,0.916759,-5.99895,-0.107075,-0.00829666,-1.70133,0.706183,0.41138,1.4,1.2,0,12521,49.488,28.987,14345.1
4047690516,0.634768,2.223,97.6968,0.0687378,0.162513,0.908889,-6.13509,-0.185281,-0.00871052,-1.35224,0.582684,0.48739,1.4,1.2,0,12521,49.488,28.987,14345.1
4047790884,0.634768,2.223,97.6945,-0.0585292,-0.0684427,0.902744,-6.21292,-0.235617,0.0580112,-0.424676,0.146769,1.07989,1.4,1.2,0,12521,49.488,28.987,14345.1
4047891243,0.634768,2.223,97.7072,-0.176683,-0.252459,0.923651,-5.94971,-0.140255,0.0927762,2.65066,-1.58317,-0.0578387,1.4,1.2,0,12521,49.488,28.987,14345.1
4047991602,0.634768,2.223,97.716,-0.240911,-0.352278,0.943261,-5.56294,-0.0136531,-0.0131298,3.4374,-2.13608,1.10915,1.4,1.2,0,12521,49.488,28.987,14345.1
4048091947,0.634768,2.223,97.7159,-0.275725,-0.408845,0.957107,-5.05571,0.169287,-0.0268264,4.27668,-2.50088,2.03508,1.4,1.2,0,12521,49.488,28.987,14345.1
4048192328,0.634767,2.223,97.7012,-0.297605,-0.437039,0.964069,-4.50975,0.369957,-0.0825266,4.46572,-2.59633,2.50857,1.4,1.2,0,12521,49.482,27.643,13678.3
4048292746,0.634767,2.223,97.6692,-0.308579,-0.438064,0.963136,-3.93062,0.580544,-0.121009,4.49461,-2.61413,2.94344,1.4,1.2,0,12521,49.482,27.643,13678.3
4048393193,0.634767,2.223,97.6196,-0.319274,-0.417708,0.955858,-3.33262,0.775452,-0.161725,4.42538,-2.81093,3.03081,1.4,1.2,0,12521,49.482,27.643,13678.3
4048493607,0.634767,2.223,97.571,-0.315195,-0.387681,0.94613,-2.70556,0.953241,-0.150871,4.25674,-2.89747,3.51477,1.4,1.2,0,12521,49.482,27.643,13678.3
4048594056,0.634767,2.223,97.5417,-0.27142,-0.357246,0.936688,-2.09108,1.11522,-0.108653,4.08286,-2.9103,3.38628,-4.2,-3.2,0,12521,49.482,27.643,13678.3
4048694418,0.634767,2.223,97.5335,-0.211236,-0.274345,0.917617,-1.55672,1.27608,-0.029873,3.67795,-2.35985,2.7592,-4.2,-3.2,0,12521,49.482,27.643,13678.3
4048794766,0.634767,2.223,97.5375,-0.22776,-0.0337925,0.902671,-1.135,1.38594,0.151332,2.63205,-2.04962,1.89486,-4.2,-3.2,0,12521,49.482,27.643,13678.3
4048895130,0.634767,2.223,97.5578,-0.265642,0.193324,0.876196,-0.956914,1.2212,0.102225,-0.93959,-2.51982,-0.62195,-4.2,-3.2,0,12521,49.482,27.643,13678.3
4048995471,0.634767,2.223,97.5807,-0.288467,0.305627,0.852098,-0.884492,0.893214,0.0010667,-2.37688,-2.43236,0.929948,-4.2,-3.2,0,12521,49.482,27.643,13678.3
4049095813,0.634767,2.223,97.611,-0.298827,0.355237,0.838263,-0.843966,0.458941,-0.00254185,-3.0136,-2.54507,2.09373,-4.2,-3.2,0,12521,49.482,27.643,13678.3
4049196185,0.634767,2.223,97.6599,-0.301977,0.366062,0.832834,-0.827767,-0.00533193,0.0127776,-3.3262,-2.62723,1.94359,-4.2,-3.2,0,12477,49.531,26.666,13207.9
4049296543,0.634767,2.223,97.7027,-0.300458,0.359297,0.832898,-0.821656,-0.463222,0.0272626,-3.26906,-2.55923,1.94545,-4.2,-3.2,0,12477,49.531,26.666,13207.9
4049396866,0.634767,2.223,97.7086,-0.298095,0.346914,0.835155,-0.8206,-0.890913,0.018603,-3.07019,-2.43684,1.27866,-4.2,-3.2,0,12477,49.531,26.666,13207.9
4049498783,0.634767,2.223,97.7135,-0.295215,0.336699,0.837191,-0.81652,-1.30916,0.0167518,-2.95302,-2.38634,1.64676,-4.2,-3.2,0,12477,49.531,26.666,13207.9
4049603460,0.634767,2.223,97.7361,-0.292685,0.32716,0.839208,-0.814281,-1.72063,0.0111023,-2.8307,-2.31845,1.49743,0.9,-3.3,0,12477,49.531,26.666,13207.9
4049703830,0.634767,2.223,97.7469,-0.289748,0.300409,0.845009,-0.807903,-2.11263,-0.00618361,-2.71545,-2.33185,1.2425,0.9,-3.3,0,12477,49.531,26.666,13207.9
4049804149,0.634767,2.223,97.7347,-0.276473,0.092765,0.868334,-0.803563,-2.51817,0.046869,-2.44986,-2.20793,1.91757,0.9,-3.3,0,12477,49.531,26.666,13207.9
4049904480,0.634767,2.223,97.7324,-0.24243,-0.167744,0.909737,-0.616364,-2.66021,0.0951188,0.657501,-2.10909,0.868923,0.9,-3.3,0,12477,49.531,26.666,13207.9
4050004796,0.634767,2.223,97.7341,-0.220368,-0.304298,0.93718,-0.323692,-2.55986,0.0226143,3.08196,-1.73777,-0.172624,0.9,-3.3,0,12477,49.531,26.666,13207.9
4050105150,0.634767,2.223,97.7193,-0.220092,-0.349723,0.949357,0.00460517,-2.37821,-0.0810623,3.54154,-1.41999,1.32534,0.9,-3.3,0,12477,49.531,26.666,13207.9
4050205461,0.634767,2.223,97.6839,-0.225004,-0.352088,0.954159,0.38812,-2.16322,-0.0904666,3.76088,-1.47605,1.91966,0.9,-3.3,0,12477,49.531,26.666,13207.9
4050305775,0.634767,2.223,97.6576,-0.236166,-0.335016,0.954436,0.76999,-1.95436,-0.0937362,3.64878,-1.51716,2.03826,0.9,-3.3,0,12477,49.597,28.102,13937.7
4050406151,0.634767,2.223,97.6344,-0.241916,-0.306163,0.95174,1.16991,-1.76225,-0.0864001,3.72533,-1.75366,1.99703,0.9,-3.3,0,12477,49.597,28.102,13937.7
4050506530,0.634767,2.223,97.6155,-0.225773,-0.255753,0.942205,1.54318,-1.59724,-0.0614164,3.09026,-1.64075,1.73548,0.9,-3.3,0,12477,49.597,28.102,13937.7
4050606936,0.634767,2.223,97.6077,-0.206831,-0.205861,0.932232,1.84478,-1.46225,-0.0442221,2.6349,-1.37139,1.15105,-0.8,-0.2,0,12477,49.597,28.102,13937.7
4050707260,0.634767,2.223,97.6054,-0.179983,-0.151991,0.92047,2.10074,-1.36048,-0.0312446,2.07928,-1.31355,1.00754,-0.8,-0.2,0,12477,49.597,28.102,13937.7
4050807518,0.634767,2.223,97.6176,0.0177072,-0.0111191,0.903793,2.32917,-1.28496,0.0381823,1.70521,-1.07613,1.0589,-0.8,-0.2,0,12477,49.597,28.102,13937.7
4050907870,0.634767,2.223,97.6421,0.248149,0.149031,0.921212,2.14096,-1.17525,0.0460893,-0.99867,2.51668,-0.457266,-0.8,-0.2,0,12477,49.597,28.102,13937.7
4051008197,0.634767,2.223,97.6606,0.353465,0.227252,0.940861,1.73707,-1.07573,-0.0591568,-1.84605,3.66414,1.27336,-0.8,-0.2,0,12477,49.597,28.102,13937.7
4051108558,0.634768,2.223,97.6741,0.364814,0.243393,0.942024,1.23461,-0.984406,-0.0556345,-2.30294,4.00241,2.06269,-0.8,-0.2,0,12477,49.597,28.102,13937.7
4051208889,0.634768,2.223,97.6979,0.310695,0.217242,0.928743,0.757918,-0.899563,-0.0356331,-2.15615,3.73175,1.70856,-0.8,-0.2,0,12477,49.597,28.102,13937.7
4051309208,0.634768,2.223,97.7192,0.224955,0.169053,0.91429,0.372245,-0.82805,-0.0213246,-1.68248,2.99911,1.08729,-0.8,-0.2,0,12389,49.481,27.404,13559.8
4051409571,0.634768,2.223,97.7182,0.145143,0.128351,0.906358,0.0981027,-0.762557,-5.32717e-06,-1.10732,2.21963,0.453293,-0.8,-0.2,0,12389,49.481,27.404,13559.8
4051509936,0.634768,2.223,97.722,0.0847869,0.103458,0.903912,-0.097043,-0.727217,-0.00144238,-0.858653,1.48967,0.128192,-0.8,-0.2,0,12389,49.481,27.404,13559.8
4051610370,0.634768,2.223,97.7365,0.0393842,0.0866647,0.902204,-0.240108,-0.716656,-0.00396854,-0.660478,0.885323,0.0559555,4.3,-4.3,0,12389,49.481,27.404,13559.8
4051710742,0.634767,2.223,97.7424,-0.00447727,0.0510503,0.898104,-0.34497,-0.71174,-0.018683,-0.565078,0.55416,0.122572,4.3,-4.3,0,12389,49.481,27.404,13559.8
4051811111,0.634767,2.223,97.7261,-0.115845,-0.11136,0.903509,-0.38498,-0.702788,0.00995182,0.322943,-0.0985535,0.201079,4.3,-4.3,0,12389,49.481,27.404,13559.8
4051911455,0.634767,2.223,97.7142,-0.212703,-0.228548,0.924535,-0.189978,-0.618486,-0.0335666,2.14958,-1.34758,-0.00236881,4.3,-4.3,0,12389,49.481,27.404,13559.8
4052011882,0.634767,2.223,97.7035,-0.273981,-0.292233,0.941572,0.129954,-0.514415,-0.0784909,2.85726,-2.0093,1.15105,4.3,-4.3,0,12389,49.481,27.404,13559.8
4052112282,0.634767,2.223,97.6823,-0.303151,-0.321016,0.950179,0.537392,-0.38791,-0.0824506,3.25432,-2.2168,2.08144,4.3,-4.3,0,12389,49.481,27.404,13559.8
4052212618,0.634767,2.223,97.6548,-0.311563,-0.328487,0.952364,0.979889,-0.256723,-0.0730458,3.34705,-2.34532,2.36272,4.3,-4.3,0,12389,49.481,27.404,13559.8
4052313143,0.634767,2.223,97.63,-0.31261,-0.325231,0.950694,1.43126,-0.139369,-0.06111,3.28939,-2.38119,2.36688,4.3,-4.3,0,12389,49.423,28.567,14118.7
4052413520,0.634767,2.223,97.6069,-0.310969,-0.318422,0.948201,1.87468,-0.0263828,-0.044213,3.15422,-2.33929,2.14048,4.3,-4.3,0,12389,49.423,28.567,14118.7
4052513885,0.634768,2.223,97.5848,-0.307841,-0.308492,0.94532,2.30747,0.0777848,-0.0456169,3.02245,-2.29169,2.10833,4.3,-4.3,0,12389,49.423,28.567,14118.7
4052614304,0.634768,2.223,97.5714,-0.303895,-0.296247,0.942124,2.74265,0.169306,-0.0342465,2.94826,-2.39181,1.97018,1.9,3.3,0,12389,49.423,28.567,14118.7
4052714632,0.634768,2.223,97.5646,-0.273707,-0.277222,0.933615,3.15549,0.256437,-0.022123,2.76667,-2.24942,1.88593,1.9,3.3,0,12389,49.423,28.567,14118.7
4052816418,0.634768,2.223,97.5617,-0.0484947,-0.184459,0.891987,3.54645,0.35671,0.0665289,2.56317,-1.73511,2.0986,1.9,3.3,0,12389,49.423,28.567,14118.7
4052916891,0.634768,2.223,97.5777,0.243296,-0.0289057,0.890432,3.56404,0.542096,0.144728,1.0872,1.50832,0.368134,1.9,3.3,0,12389,49.423,28.567,14118.7
4053022631,0.634768,2.223,97.6073,0.388737,0.0518658,0.912065,3.27391,0.749672,0.0792329,-0.405818,3.84106,0.456646,1.9,3.3,0,12389,49.423,28.567,14118.7
4053124195,0.634768,2.223,97.6334,0.453627,0.0931639,0.930452,2.86657,0.965433,0.0172911,-0.952812,4.5225,1.64652,1.9,3.3,0,12389,49.423,28.567,14118.7
4053224567,0.634768,2.223,97.6625,0.474186,0.112003,0.941475,2.37754,1.20286,0.0102006,-1.13588,4.77314,2.48776,1.9,3.3,0,12389,49.423,28.567,14118.7
4053324916,0.634768,2.223,97.6887,0.471357,0.114604,0.945487,1.87091,1.4243,-0.00968726,-1.32172,4.91742,2.06614,1.9,3.3,0,12389,49.453,28.147,13919.5
4053425276,0.634768,2.223,97.699,0.453699,0.102691,0.942154,1.37311,1.63501,-0.0285103,-1.27121,4.72309,2.17637,1.9,3.3,0,12389,49.453,28.147,13919.5
4053525667,0.634768,2.223,97.7039,0.442739,0.0779992,0.933429,0.891383,1.85378,-0.034266,-1.08114,4.58688,2.13008,1.9,3.3,0,12389,49.453,28.147,13919.5
4053628873,0.634768,2.223,97.7108,0.433445,0.0528372,0.925404,0.349965,2.13553,-0.0176534,-0.753296,4.42514,2.00249,-3.3,1,0,12389,49.453,28.147,13919.5
4053732103,0.634768,2.223,97.7123,0.39312,0.0516927,0.921447,-0.0764747,2.39553,-0.0141485,-0.348511,4.28976,2.13775,-3.3,1,0,12389,49.453,28.147,13919.5
4053832491,0.634768,2.223,97.7062,0.233782,0.209329,0.9274,-0.493325,2.59483,0.113771,-0.978857,3.64428,1.95665,-3.3,1,0,12389,49.453,28.147,13919.5
4053932852,0.634768,2.223,97.7091,0.0127266,0.357316,0.899987,-0.823982,2.45767,0.0761938,-3.23692,1.26081,0.0613414,-3.3,1,0,12389,49.453,28.147,13919.5
4054033218,0.634768,2.223,97.7095,-0.093691,0.413885,0.882524,-1.04065,2.14845,-0.0406679,-3.67517,-0.441856,0.871248,-3.3,1,0,12389,49.453,28.147,13919.5
4054133558,0.634768,2.223,97.7038,-0.152817,0.443457,0.872108,-1.24506,1.72834,-0.0812559,-4.04183,-1.10355,1.99284,-3.3,1,0,12389,49.453,28.147,13919.5
4054234696,0.634768,2.223,97.7161,-0.163597,0.446863,0.872523,-1.43666,1.25379,-0.0808653,-4.25465,-1.35259,2.18954,-3.3,1,0,12389,49.453,28.147,13919.5
4054335393,0.634768,2.223,97.7227,-0.152884,0.43993,0.876554,-1.61345,0.778421,-0.0719576,-4.07263,-1.39256,2.33553,-3.3,1,0,12389,49.41,28.44,14052.2
4054435770,0.634768,2.223,97.6971,-0.13597,0.430936,0.880422,-1.79188,0.323218,-0.0663697,-4.03332,-1.26015,2.08673,-3.3,1,0,12389,49.41,28.44,14052.2
4054536093,0.634768,2.223,97.6798,-0.121897,0.424581,0.882446,-1.98042,-0.114483,-0.0486943,-3.90831,-1.04885,2.18304,-3.3,1,0,12389,49.41,28.44,14052.2
4054636474,0.634768,2.223,97.6828,-0.103186,0.388012,0.886562,-2.17241,-0.534431,-0.0398541,-3.84072,-0.886811,1.90948,3.2,2.6,0,12389,49.41,28.44,14052.2
4054736795,0.634768,2.223,97.6786,-0.0731279,0.295325,0.89474,-2.33245,-0.896179,-0.0220622,-3.35398,-0.783575,1.32415,3.2,2.6,0,12389,49.41,28.44,14052.2
4054837088,0.634768,2.223,97.6623,-0.00966536,0.00384912,0.902057,-2.45596,-1.16684,0.0103553,-2.18144,-0.455445,0.732331,3.2,2.6,0,12389,49.41,28.44,14052.2
4054937460,0.634768,2.223,97.65,0.0562316,-0.260834,0.891002,-2.39314,-1.06778,0.021116,1.69634,0.396195,0.153664,3.2,2.6,0,12389,49.41,28.44,14052.2
4055037819,0.634768,2.223,97.6484,0.0924346,-0.389475,0.877043,-2.23281,-0.743998,-0.0459241,3.5652,0.930427,0.926675,3.2,2.6,0,12389,49.41,28.44,14052.2
4055138112,0.634768,2.223,97.6363,0.116714,-0.449031,0.866983,-2.02331,-0.319124,-0.077664,4.39042,1.08143,2.00251,3.2,2.6,0,12389,49.41,28.44,14052.2
4055238537,0.634768,2.223,97.6128,0.126732,-0.464159,0.862512,-1.78118,0.178018,-0.0719259,4.57411,1.20676,2.88997,3.2,2.6,0,12389,49.41,28.44,14052.2
4055338896,0.634768,2.223,97.5911,0.130165,-0.457754,0.860869,-1.53322,0.68654,-0.0541643,4.68542,1.22724,2.68606,3.2,2.6,0,12389,49.405,28.787,14222.2
4055439207,0.634767,2.223,97.57,0.131943,-0.444568,0.861102,-1.30841,1.1863,-0.051017,4.41972,1.30576,2.757,3.2,2.6,0,12389,49.405,28.787,14222.2
4055539577,0.634767,2.223,97.5515,0.135065,-0.432008,0.86159,-1.08213,1.67934,-0.0196615,4.30442,1.26787,2.6638,3.2,2.6,0,12389,49.405,28.787,14222.2
4055640061,0.634767,2.223,97.5463,0.135558,-0.415466,0.862892,-0.872089,2.15304,0.000674658,4.10537,1.24369,2.33081,4.4,-2,0,12389,49.405,28.787,14222.2
4055740425,0.634767,2.223,97.548,0.101144,-0.360834,0.874564,-0.678786,2.6181,0.0308464,3.91672,1.21162,2.12591,4.4,-2,0,12389,49.405,28.787,14222.2
4055840784,0.634767,2.223,97.5537,-0.104706,-0.278914,0.913143,-0.501147,3.00946,0.130994,3.26141,0.789035,1.88721,4.4,-2,0,12389,49.405,28.787,14222.2
4055941123,0.634767,2.223,97.5705,-0.279906,-0.219097,0.930607,-0.200153,3.12462,0.132114,2.36985,-1.87303,0.106597,4.4,-2,0,12389,49.405,28.787,14222.2
4056041483,0.634767,2.223,97.595,-0.371118,-0.190735,0.931209,0.159923,3.11084,0.0388896,1.79433,-2.98555,0.730389,4.4,-2,0,12389,49.405,28.787,14222.2
4056141841,0.634768,2.223,97.6133,-0.410705,-0.175143,0.929494,0.596343,3.02225,0.0207578,1.58007,-3.65146,1.73665,4.4,-2,0,12389,49.405,28.787,14222.2
4056242163,0.634768,2.223,97.6421,-0.420254,-0.170323,0.927963,1.0278,2.89849,0.0244117,1.33216,-3.71345,1.77294,4.4,-2,0,12389,49.405,28.787,14222.2
4056343686,0.634768,2.223,97.6647,-0.411163,-0.173918,0.927398,1.44672,2.77407,0.0062803,1.36117,-3.70375,1.54761,4.4,-2,0,12389,49.405,28.787,14222.2
4056449923,0.634768,2.223,97.6551,-0.394338,-0.180617,0.927523,1.95422,2.63222,0.00011044,1.50159,-3.65573,1.50976,4.4,-2,0,12389,49.405,28.787,14222.2
4056552526,0.634768,2.223,97.6472,-0.37824,-0.188778,0.928973,2.34845,2.52833,-0.00974796,1.37814,-3.33266,1.45788,4.4,-2,0,12389,49.405,28.787,14222.2
4056652925,0.634768,2.223,97.6533,-0.336238,-0.182367,0.92409,2.7406,2.43596,-0.00461707,1.49129,-3.15272,1.32915,-1.5,0.2,0,12389,49.405,28.787,14222.2
4056753253,0.634768,2.223,97.662,-0.27112,-0.138801,0.915515,3.08346,2.36937,0.0104974,1.46177,-2.55308,1.43798,-1.5,0.2,0,12389,49.405,28.787,14222.2
4056853563,0.634768,2.223,97.6483,-0.109337,0.111694,0.900451,3.32391,2.28518,0.105564,0.370343,-1.80771,0.937723,-1.5,0.2,0,12389,49.405,28.787,14222.2
4056953825,0.634768,2.223,97.6502,0.0338698,0.309021,0.907936,3.18809,2.07197,0.0928869,-2.8769,0.171453,-0.327943,-1.5,0.2,0,12389,49.376,28.371,14008.5
4057054171,0.634768,2.223,97.6686,0.110665,0.405,0.92217,2.87206,1.82914,-0.01681,-3.80009,1.13753,1.19217,-1.5,0.2,0,12389,49.376,28.371,14008.5
4057154604,0.634768,2.223,97.6755,0.152325,0.454951,0.931579,2.44588,1.54712,-0.0306894,-4.33262,1.62202,2.1519,-1.5,0.2,0,12389,49.376,28.371,14008.5
4057254949,0.634768,2.223,97.6901,0.168014,0.480538,0.934522,1.97191,1.25983,-0.0634303,-4.55092,1.84617,2.36614,-1.5,0.2,0,12389,49.376,28.371,14008.5
4057355305,0.634768,2.223,97.7022,0.15912,0.48676,0.932845,1.47591,0.964075,-0.0764009,-4.56537,1.849,2.73495,-1.5,0.2,0,12389,49.376,28.371,14008.5
4057455655,0.634768,2.223,97.699,0.13552,0.485283,0.928052,0.973952,0.65792,-0.0806261,-4.68871,1.79391,2.67014,-1.5,0.2,0,12389,49.376,28.371,14008.5
4057556035,0.634768,2.223,97.6995,0.112686,0.473379,0.923083,0.488793,0.334428,-0.05926,-4.58591,1.55084,2.81376,-1.5,0.2,0,12389,49.376,28.371,14008.5
4057656416,0.634768,2.223,97.7196,0.0792758,0.413803,0.913352,0.0317239,0.0132531,-0.0339717,-4.47141,1.3883,2.34588,3.5,0.8,0,12389,49.376,28.371,14008.5
4057756778,0.634768,2.223,97.733,0.0561085,0.289414,0.907304,-0.338327,-0.256185,-0.00501582,-3.68516,0.977044,1.90837,3.5,0.8,0,12389,49.376,28.371,14008.5
4057857952,0.634768,2.223,97.7299,0.0642874,-0.018044,0.901082,-0.607345,-0.425413,0.0362276,-2.20215,0.938217,0.24802,3.5,0.8,0,12389,49.376,28.371,14008.5
4057963149,0.634768,2.223,97.7347,0.057054,-0.279462,0.893159,-0.634326,-0.269225,-0.000243774,1.79192,1.03778,-0.256933,3.5,0.8,0,12389,49.261,30.959,15250.7
4058063510,0.634768,2.223,97.7391,0.0480952,-0.413564,0.89073,-0.500388,0.0499461,-0.0653761,3.5775,0.769563,1.00234,3.5,0.8,0,12389,49.261,30.959,15250.7
4058163865,0.634768,2.223,97.728,0.0405603,-0.472368,0.890105,-0.279956,0.466762,-0.0862573,4.489,0.685075,2.05172,3.5,0.8,0,12389,49.261,30.959,15250.7
4058264268,0.634768,2.223,97.6955,0.0337996,-0.485507,0.890357,-0.0163836,0.927554,-0.0923961,4.6406,0.630096,2.71937,3.5,0.8,0,12389,49.261,30.959,15250.7
4058364622,0.634768,2.223,97.6556,0.0262119,-0.476155,0.891516,0.262593,1.39325,-0.0863993,4.63254,0.576297,2.75784,3.5,0.8,0,12389,49.261,30.959,15250.7
4058464951,0.634768,2.223,97.6076,0.0168312,-0.429037,0.893672,0.536425,1.83456,-0.0777404,4.39308,0.4937,2.66205,3.5,0.8,0,12389,49.261,30.959,15250.7
4058565215,0.634768,2.223,97.57,0.00532269,-0.358945,0.896134,0.788759,2.21829,-0.0352325,3.73992,0.357919,2.28175,3.5,0.8,0,12389,49.261,30.959,15250.7
4058665471,0.634768,2.223,97.5565,-0.00336364,-0.286411,0.897494,0.993754,2.51539,0.00682014,2.89866,0.242577,1.57567,-2.4,0.4,0,12389,49.261,30.959,15250.7
4058765748,0.634768,2.223,97.5531,-0.00913165,-0.209735,0.897695,1.14717,2.72823,0.0222559,2.12374,0.104128,0.959681,-2.4,0.4,0,12389,49.261,30.959,15250.7
4058866030,0.634768,2.223,97.5586,-0.0253332,0.0477373,0.898452,1.28204,2.89923,0.0951263,1.52197,-0.0282444,0.90129,-2.4,0.4,0,12389,49.261,30.959,15250.7
4058966354,0.634768,2.223,97.5802,-0.0410327,0.273418,0.894589,1.19615,2.77364,0.108416,-2.26937,-0.146544,-0.410807,-2.4,0.4,0,12389,49.297,30.605,15087.3
4059066657,0.634768,2.223,97.6148,-0.0461753,0.394551,0.89189,1.01644,2.50378,0.0255472,-3.49972,-0.229462,0.961651,-2.4,0.4,0,12389,49.297,30.605,15087.3
4059166993,0.634768,2.223,97.6925,-0.0485854,0.461905,0.890696,0.75809,2.1187,0.03686,-4.48939,-0.284804,1.86391,-2.4,0.4,0,12389,49.297,30.605,15087.3
4059267339,0.634768,2.223,97.728,-0.0465912,0.488861,0.891166,0.461975,1.69457,0.0269897,-4.88373,-0.251187,2.05882,-2.4,0.4,0,12389,49.297,30.605,15087.3
4059367693,0.634768,2.223,97.7319,-0.0422492,0.488698,0.891824,0.152425,1.26235,0.00343462,-4.89786,-0.169717,2.0907,-2.4,0.4,0,12389,49.297,30.605,15087.3
4059468047,0.634768,2.223,97.7322,-0.0393914,0.480888,0.892193,-0.154242,0.838148,-0.0156156,-4.70281,-0.159225,2.22904,-2.4,0.4,0,12389,49.297,30.605,15087.3
4059568396,0.634768,2.223,97.7384,-0.0394286,0.470713,0.892302,-0.455917,0.417761,-0.0385883,-4.60711,-0.162031,2.13196,-2.4,0.4,0,12389,49.297,30.605,15087.3
4059668793,0.634768,2.223,97.7362,-0.0412644,0.450806,0.893269,-0.759735,0.00862014,-0.0498277,-4.49914,-0.0837237,1.98117,-1,2.3,0,12389,49.297,30.605,15087.3
4059769156,0.634768,2.223,97.7196,-0.0296729,0.381782,0.897927,-1.04834,-0.387649,-0.0540671,-4.13818,-0.0826942,1.95374,-1,2.3,0,12389,49.297,30.605,15087.3
4059869509,0.634768,2.223,97.7057,0.102651,0.203638,0.925496,-1.31268,-0.720459,0.0328428,-3.37006,0.119157,1.8321,-1,2.3,0,12389,49.297,30.605,15087.3
4059969877,0.634768,2.223,97.698,0.241525,0.0336645,0.917239,-1.5272,-0.746071,0.0260445,-1.06452,1.95619,-0.613176,-1,2.3,0,12389,49.297,29.347,14467.2
4060070237,0.634768,2.223,97.6802,0.29609,-0.0520476,0.897765,-1.7809,-0.5139,-0.0770056,0.644337,2.94129,0.745352,-1,2.3,0,12389,49.297,29.347,14467.2
4060170584,0.634768,2.223,97.6587,0.294144,-0.0856904,0.887001,-1.99249,-0.234139,-0.0853799,1.00179,3.17547,1.3481,-1,2.3,0,12389,49.297,29.347,14467.2
4060270943,0.634768,2.223,97.6389,0.252756,-0.0832597,0.88615,-2.18602,0.0511411,-0.0637578,1.03672,2.98989,1.10681,-1,2.3,0,12389,49.297,29.347,14467.2
4060371317,0.634768,2.223,97.617,0.193444,-0.0641822,0.889718,-2.32255,0.279735,-0.0461709,0.924667,2.24055,0.983271,-1,2.3,0,12389,49.297,29.347,14467.2
4060471676,0.634768,2.223,97.6085,0.139163,-0.0424584,0.893551,-2.4216,0.449136,-0.026486,0.736354,1.67455,0.533634,-1,2.3,0,12389,49.297,29.347,14467.2
4060572096,0.634768,2.223,97.6203,0.100329,-0.0252732,0.896049,-2.48645,0.58153,-0.0124036,0.548034,1.18082,0.471121,-1,2.3,0,12389,49.297,29.347,14467.2
4060672487,0.634768,2.223,97.6308,0.0694729,-0.0103295,0.897752,-2.53191,0.674497,0.00176826,0.330328,0.819854,0.147036,-4.5,2.3,0,12389,49.297,29.347,14467.2
4060772816,0.634768,2.223,97.643,0.0463718,0.0190755,0.898081,-2.55997,0.74484,0.00798855,0.291809,0.624415,0.43736,-4.5,2.3,0,12389,49.297,29.347,14467.2
4060873187,0.634768,2.223,97.6622,0.016165,0.178912,0.898404,-2.6087,0.749624,0.049621,-0.796685,0.316071,-0.0908009,-4.5,2.3,0,12389,49.297,29.347,14467.2
4060973541,0.634768,2.223,97.6759,0.00208427,0.300287,0.899059,-2.74404,0.598695,0.010625,-2.34313,0.0937206,-0.086944,-4.5,2.3,0,12389,49.292,30.537,15052.3
4061073898,0.634768,2.223,97.6847,-0.00602864,0.373958,0.899585,-2.94173,0.349863,-0.0182264,-3.24386,-0.0702615,1.13749,-4.5,2.3,0,12389,49.292,30.537,15052.3
4061174208,0.634768,2.223,97.695,-0.00812206,0.414903,0.900493,-3.17263,0.0422345,-0.0146805,-3.77276,-0.0848105,1.46805,-4.5,2.3,0,12389,49.292,30.537,15052.3
4061274543,0.634767,2.223,97.7031,-0.0084275,0.426331,0.902014,-3.41638,-0.289884,-0.0106316,-3.85845,-0.103944,1.67802,-4.5,2.3,0,12389,49.292,30.537,15052.3
4061374951,0.634767,2.223,97.698,-0.00787982,0.413434,0.903585,-3.6611,-0.622713,-0.0091592,-3.82415,-0.124186,1.72539,-4.5,2.3,0,12389,49.292,30.537,15052.3
4061475282,0.634767,2.223,97.6888,-0.00306253,0.365074,0.904605,-3.89431,-0.936934,-0.0031736,-3.55429,-0.0825727,1.54897,-4.5,2.3,0,12389,49.292,30.537,15052.3
4061575537,0.634767,2.223,97.6918,0.00181049,0.313213,0.904949,-4.0919,-1.19763,-0.00211758,-3.08001,-0.0376455,0.978656,-4.5,2.3,0,12389,49.292,30.537,15052.3
4061675904,0.634767,2.223,97.6918,0.00549185,0.261838,0.904585,-4.24331,-1.40642,-0.00143747,-2.39246,-0.0492376,0.682411,-2.1,-3.8,0,12389,49.292,30.537,15052.3
4061776207,0.634767,2.223,97.6787,-0.00897401,0.197538,0.90026,-4.36162,-1.56835,-0.00390432,-1.93849,0.0224827,0.439835,-2.1,-3.8,0,12389,49.292,30.537,15052.3
4061876592,0.634767,2.223,97.6749,-0.159941,0.0353937,0.889979,-4.43207,-1.70177,0.0790566,-1.01425,-0.349718,0.822205,-2.1,-3.8,0,12389,49.292,30.537,15052.3
4061976950,0.634767,2.223,97.6827,-0.318113,-0.0760749,0.910587,-4.21961,-1.77631,0.0371713,0.890411,-2.44353,-0.571654,-2.1,-3.8,0,12389,49.287,28.686,14138.5
4062077313,0.634767,2.223,97.6746,-0.411541,-0.124121,0.929823,-3.86284,-1.87228,-0.0500942,1.46403,-3.219,1.31527,-2.1,-3.8,0,12389,49.287,28.686,14138.5
4062177696,0.634767,2.223,97.6569,-0.459299,-0.143868,0.941543,-3.38152,-2.00384,-0.074186,1.74285,-3.94574,2.27521,-2.1,-3.8,0,12389,49.287,28.686,14138.5
4062278036,0.634767,2.223,97.6359,-0.470496,-0.145365,0.945104,-2.84956,-2.13603,-0.0791558,1.93993,-4.21872,2.55149,-2.1,-3.8,0,12389,49.287,28.686,14138.5
4062379010,0.634767,2.223,97.6119,-0.459206,-0.134261,0.943613,-2.31131,-2.26452,-0.0690269,1.9708,-4.25826,2.48066,-2.1,-3.8,0,12389,49.287,28.686,14138.5
4062483919,0.634767,2.223,97.5918,-0.441058,-0.118901,0.938529,-1.79764,-2.39866,-0.0660487,1.74665,-3.94821,2.77333,-2.1,-3.8,0,12389,49.287,28.686,14138.5
4062584330,0.634767,2.223,97.594,-0.42199,-0.101137,0.931857,-1.30059,-2.52971,-0.0189997,1.69541,-3.881,2.39661,-2.1,-3.8,0,12389,49.287,28.686,14138.5
4062684722,0.634767,2.223,97.5979,-0.407186,-0.0752305,0.922012,-0.862471,-2.65748,0.00380747,1.39549,-3.57159,1.85344,2,4.4,0,12389,49.287,28.686,14138.5
4062785049,0.634767,2.223,97.598,-0.385562,-0.0508578,0.91148,-0.459051,-2.79227,0.0124347,1.11561,-3.39989,1.63179,2,4.4,0,12389,49.287,28.686,14138.5
4062885424,0.634767,2.223,97.6059,-0.188183,-0.0827573,0.891552,-0.0911421,-2.95497,0.0737462,0.706131,-3.11174,1.68009,2,4.4,0,12389,49.287,28.686,14138.5
4062985753,0.634767,2.223,97.6385,0.130868,-0.164212,0.874279,0.0687524,-2.90154,0.123166,1.31523,-0.252606,0.426108,2,4.4,0,12389,49.287,28.686,14138.5
4063086074,0.634767,2.223,97.6631,0.32702,-0.209275,0.857955,0.0210801,-2.56984,0.0650831,2.24247,3.06373,-0.27822,2,4.4,0,12389,49.292,29.201,14393.8
4063186456,0.634767,2.223,97.6687,0.418726,-0.227703,0.850158,-0.117397,-2.13477,-0.0482155,2.29161,3.88832,1.6747,2,4.4,0,12389,49.292,29.201,14393.8
4063287987,0.634767,2.223,97.6671,0.448756,-0.229813,0.849967,-0.372648,-1.48422,-0.0682245,2.47241,4.61526,2.56083,2,4.4,0,12389,49.292,29.201,14393.8
4063390221,0.634767,2.223,97.6646,0.442172,-0.223643,0.855052,-0.593558,-0.942511,-0.0763982,2.37295,4.57664,2.60613,2,4.4,0,12389,49.292,29.201,14393.8
4063490575,0.634767,2.223,97.6617,0.423911,-0.218856,0.858092,-0.815312,-0.412992,-0.0595859,2.26788,4.37004,2.76526,2,4.4,0,12389,49.292,29.201,14393.8
4063590914,0.634767,2.223,97.6558,0.404097,-0.217973,0.859957,-1.02781,0.0953397,-0.0432397,2.25913,4.20431,2.36396,2,4.4,0,12389,49.292,29.201,14393.8
4063691314,0.634767,2.223,97.6581,0.384236,-0.218945,0.861511,-1.23166,0.583551,-0.0330751,2.08355,3.90103,2.33203,-1,-0.6,0,12389,49.292,29.201,14393.8
4063791687,0.634767,2.223,97.672,0.34896,-0.207153,0.867219,-1.41621,1.05659,-0.0168186,2.25157,3.77978,1.93243,-1,-0.6,0,12389,49.292,29.201,14393.8
4063892089,0.634767,2.223,97.6853,0.136447,-0.08006,0.899861,-1.56959,1.47123,0.0303218,1.78845,3.01284,1.38927,-1,-0.6,0,12389,49.292,29.201,14393.8
4063992443,0.634767,2.223,97.7011,-0.173742,0.0889526,0.893566,-1.60343,1.52837,0.0780706,-0.113117,-0.0909339,-0.0429522,-1,-0.6,0,12389,49.292,29.201,14393.8
4064092802,0.634767,2.223,97.7186,-0.345422,0.169998,0.869604,-1.50825,1.29199,0.0138599,-1.41146,-2.69117,0.248982,-1,-0.6,0,12344,49.267,28.303,13944
4064193150,0.634767,2.223,97.7354,-0.426859,0.205417,0.853511,-1.35395,0.921784,-0.0198616,-1.92464,-3.53555,1.57423,-1,-0.6,0,12344,49.267,28.303,13944
4064293483,0.634767,2.223,97.7497,-0.424875,0.200344,0.854543,-1.16039,0.476569,-0.0390727,-2.09979,-3.97103,2.30597,-1,-0.6,0,12344,49.267,28.303,13944
4064393820,0.634767,2.223,97.7578,-0.370217,0.172074,0.865451,-0.973202,0.0562965,-0.018851,-1.87711,-3.81091,1.74875,-1,-0.6,0,12344,49.267,28.303,13944
4064494198,0.634767,2.223,97.7636,-0.3042,0.141303,0.875982,-0.812844,-0.276734,-0.0212056,-1.49925,-3.18127,1.07808,-1,-0.6,0,12344,49.267,28.303,13944
4064594537,0.634767,2.223,97.7567,-0.243869,0.113202,0.883763,-0.688123,-0.541604,-0.0221751,-1.1624,-2.51075,0.645289,-1,-0.6,0,12344,49.267,28.303,13944
4064694934,0.634767,2.223,97.7442,-0.191683,0.0885111,0.889569,-0.596296,-0.752105,-0.040066,-0.970838,-1.90936,0.251185,-3.9,4.9,0,12344,49.267,28.303,13944
4064795283,0.634767,2.223,97.7297,-0.129513,0.0803422,0.892797,-0.516705,-0.915252,-0.0391205,-0.588694,-1.43042,0.702899,-3.9,4.9,0,12344,49.267,28.303,13944
4064895664,0.634767,2.223,97.7139,0.0748137,0.144543,0.909321,-0.492241,-1.03898,0.029524,-0.860094,-0.441053,0.0618172,-3.9,4.9,0,12344,49.267,28.303,13944
4064996088,0.634767,2.223,97.6953,0.257701,0.188291,0.927282,-0.716601,-1.06349,-0.061186,-1.63558,2.08123,-0.321778,-3.9,4.9,0,12344,49.267,28.303,13944
4065096437,0.634767,2.223,97.6746,0.356102,0.209003,0.938513,-1.09709,-1.02109,-0.110554,-1.77257,3.17735,1.81015,-3.9,4.9,0,12299,49.198,30.229,14872.1
4065196776,0.634767,2.223,97.6663,0.400789,0.213577,0.941605,-1.57231,-0.942072,-0.10153,-1.98383,3.945,2.07877,-3.9,4.9,0,12299,49.198,30.229,14872.1
4065297109,0.634767,2.223,97.6579,0.404925,0.211138,0.939424,-2.06688,-0.831142,-0.0879499,-1.82244,3.9988,2.56615,-3.9,4.9,0,12299,49.198,30.229,14872.1
4065397476,0.634766,2.223,97.649,0.394387,0.208975,0.936813,-2.54978,-0.714478,-0.0693979,-1.74627,4.08244,2.15512,-3.9,4.9,0,12299,49.198,30.229,14872.1
4065497850,0.634766,2.223,97.6465,0.388031,0.211682,0.935963,-3.01733,-0.609309,-0.0495067,-1.76633,3.85618,2.22727,-3.9,4.9,0,12299,49.198,30.229,14872.1
4065598211,0.634766,2.223,97.6567,0.382577,0.215617,0.936749,-3.47986,-0.501101,-0.0194568,-1.73421,3.80515,2.09239,-3.9,4.9,0,12299,49.198,30.229,14872.1
4065698599,0.634766,2.223,97.6758,0.37291,0.217189,0.936443,-3.92929,-0.403853,-0.00311813,-1.8313,3.69246,1.77235,-2.3,-3.1,0,12299,49.198,30.229,14872.1
4065798966,0.634766,2.223,97.6953,0.335126,0.204803,0.927434,-4.36831,-0.317661,-0.000160217,-1.84504,3.52866,1.6007,-2.3,-3.1,0,12299,49.198,30.229,14872.1
4065899329,0.634766,2.223,97.7152,0.101339,0.121878,0.887655,-4.7598,-0.239476,0.0562418,-1.50716,2.85581,1.23302,-2.3,-3.1,0,12299,49.198,30.229,14872.1
4065999695,0.634766,2.223,97.7412,-0.213993,0.0199009,0.886322,-4.82658,-0.260709,0.121042,-0.331665,-0.162616,0.462611,-2.3,-3.1,0,12299,49.198,30.229,14872.1
4066100090,0.634766,2.223,97.7626,-0.39586,-0.0290296,0.904083,-4.57004,-0.402024,0.0720092,0.560952,-3.53401,-0.590595,-2.3,-3.1,0,12299,49.281,30.076,14821.8
4066200457,0.634766,2.223,97.7599,-0.477734,-0.050862,0.916764,-4.19794,-0.594087,-0.0481212,0.791169,-4.16305,1.44131,-2.3,-3.1,0,12299,49.281,30.076,14821.8
4066300828,0.634766,2.223,97.7514,-0.503213,-0.0582012,0.92339,-3.72262,-0.839026,-0.0660719,0.909139,-4.66749,2.48464,-2.3,-3.1,0,12299,49.281,30.076,14821.8
4066401190,0.634766,2.223,97.7443,-0.500659,-0.0565787,0.924856,-3.23191,-1.07699,-0.0817867,1.03608,-4.73959,2.40148,-2.3,-3.1,0,12299,49.281,30.076,14821.8
4066501518,0.634766,2.223,97.7281,-0.495047,-0.0492809,0.922462,-2.75091,-1.31278,-0.0921839,0.944479,-4.5235,2.58761,-2.3,-3.1,0,12299,49.281,30.076,14821.8
4066601892,0.634766,2.223,97.698,-0.481955,-0.0367006,0.916491,-2.26557,-1.5537,-0.0869719,0.926789,-4.42922,2.71905,-2.3,-3.1,0,12299,49.281,30.076,14821.8
4066702230,0.634766,2.223,97.6697,-0.467493,-0.0224488,0.910952,-1.79869,-1.79842,-0.0861233,0.777896,-4.33113,2.38903,-3.8,-3,0,12299,49.281,30.076,14821.8
4066802505,0.634766,2.223,97.6528,-0.445332,0.00145824,0.904737,-1.3571,-2.05193,-0.0653868,0.584738,-4.07026,2.52985,-3.8,-3,0,12299,49.281,30.076,14821.8
4066902717,0.634766,2.223,97.6391,-0.393962,0.0940616,0.891301,-0.954113,-2.31558,-0.0299043,0.113217,-3.84885,2.14411,-3.8,-3,0,12299,49.281,30.076,14821.8
4067002991,0.634766,2.223,97.6267,-0.356356,0.173244,0.875835,-0.690139,-2.62054,-0.0310684,-0.850948,-3.3179,1.38878,-3.8,-3,0,12299,49.281,30.076,14821.8
4067105052,0.634766,2.223,97.6198,-0.328256,0.226979,0.863886,-0.510086,-2.96215,-0.0344028,-1.51474,-2.86731,1.56082,-3.8,-3,0,12299,49.262,28.079,13832.3
4067211046,0.634766,2.223,97.6214,-0.291528,0.241916,0.861705,-0.384009,-3.3906,-0.0159763,-2.07079,-2.49696,1.44131,-3.8,-3,0,12299,49.262,28.079,13832.3
4067312653,0.634766,2.223,97.6244,-0.247913,0.223612,0.866748,-0.313834,-3.71019,-0.00826669,-1.87032,-2.03532,1.31303,-3.8,-3,0,12299,49.262,28.079,13832.3
4067413077,0.634766,2.223,97.6194,-0.208145,0.199465,0.872827,-0.260129,-3.97911,0.00630976,-1.63696,-1.6707,1.00653,-3.8,-3,0,12299,49.262,28.079,13832.3
4067513477,0.634766,2.223,97.6218,-0.171315,0.174686,0.878607,-0.225902,-4.18783,0.0119652,-1.41514,-1.2383,0.493202,-3.8,-3,0,12299,49.262,28.079,13832.3
4067613891,0.634766,2.223,97.6331,-0.143693,0.151039,0.883967,-0.211773,-4.34799,0.0150562,-1.14382,-0.892159,0.340771,-3.8,-3,0,12299,49.262,28.079,13832.3
4067714321,0.634766,2.223,97.6379,-0.126892,0.130197,0.888183,-0.211615,-4.47855,0.013151,-0.923487,-0.665658,0.334827,4.4,3.2,0,12299,49.262,28.079,13832.3
4067814688,0.634766,2.223,97.6442,-0.0978027,0.0871036,0.895094,-0.205077,-4.58392,0.0278494,-0.766251,-0.620965,0.381918,4.4,3.2,0,12299,49.262,28.079,13832.3
4067915033,0.634766,2.223,97.654,0.0639655,-0.116372,0.894931,-0.203849,-4.62357,0.101879,0.0579268,0.0628462,0.790836,4.4,3.2,0,12299,49.262,28.079,13832.3
4068015389,0.634766,2.223,97.674,0.210413,-0.267317,0.871523,-0.200203,-4.30606,0.113078,2.75922,2.227,-0.0258181,4.4,3.2,0,12299,49.262,28.079,13832.3
4068115782,0.634766,2.223,97.6845,0.289427,-0.345678,0.851547,-0.232656,-3.86464,-0.0183858,3.35402,2.98998,1.11558,4.4,3.2,0,12299,49.238,30.544,15039.3
4068216251,0.634766,2.223,97.6724,0.325717,-0.38613,0.840517,-0.251941,-3.28635,-0.0505204,3.97582,3.28807,2.60312,4.4,3.2,0,12299,49.238,30.544,15039.3
4068316562,0.634766,2.223,97.6488,0.337072,-0.396124,0.838967,-0.270231,-2.66635,-0.089059,4.15268,3.43771,2.72944,4.4,3.2,0,12299,49.238,30.544,15039.3
4068416943,0.634766,2.223,97.6231,0.33351,-0.392788,0.842379,-0.29115,-2.03309,-0.123401,4.04693,3.38346,3.04042,4.4,3.2,0,12299,49.238,30.544,15039.3
4068517340,0.634766,2.223,97.5953,0.321748,-0.389057,0.843453,-0.309225,-1.37584,-0.0935513,4.12285,3.38813,3.55235,4.4,3.2,0,12299,49.238,30.544,15039.3
4068617681,0.634766,2.223,97.5712,0.301228,-0.379598,0.846487,-0.315236,-0.733556,-0.0646814,4.03754,3.22872,3.29102,4.4,3.2,0,12299,49.238,30.544,15039.3
4068718084,0.634766,2.223,97.5544,0.278267,-0.36614,0.851196,-0.314368,-0.129588,-0.0273678,3.85326,3.02429,2.88955,0.2,-4,0,12299,49.238,30.544,15039.3
4068818440,0.634766,2.223,97.5463,0.225575,-0.341496,0.862283,-0.304241,0.430802,-0.00992946,3.64012,2.85588,2.50962,0.2,-4,0,12299,49.238,30.544,15039.3
4068918809,0.634766,2.223,97.5525,0.00885906,-0.223036,0.909592,-0.25718,0.948195,0.106148,3.53626,2.1776,1.88719,0.2,-4,0,12299,49.238,30.544,15039.3
4069019164,0.634766,2.223,97.5794,-0.254266,-0.04294,0.910238,-0.114289,1.10736,0.1061,1.53854,-0.810296,-0.295184,0.2,-4,0,12299,49.238,30.544,15039.3
4069119524,0.634766,2.223,97.604,-0.396644,0.0493912,0.886254,0.106402,0.95383,0.0285655,-0.125769,-2.99156,0.500235,0.2,-4,0,12299,49.238,30.544,15039.3
4069219937,0.634766,2.223,97.6192,-0.461931,0.0893884,0.870831,0.380214,0.664953,0.00585484,-0.720818,-3.8414,1.6274,0.2,-4,0,12255,49.231,28.319,13941.7
4069320324,0.634766,2.223,97.6384,-0.480167,0.100358,0.865267,0.683696,0.302426,0.00195838,-0.952469,-4.26196,2.23524,0.2,-4,0,12255,49.231,28.319,13941.7
4069420660,0.634766,2.223,97.6637,-0.475605,0.0975879,0.865504,0.99031,-0.0701888,0.0128842,-0.970698,-4.20402,2.13962,0.2,-4,0,12255,49.231,28.319,13941.7
4069521017,0.634766,2.223,97.6847,-0.466322,0.0877228,0.868184,1.28709,-0.426358,0.0161804,-0.898536,-4.1465,1.87635,0.2,-4,0,12255,49.231,28.319,13941.7
4069621372,0.634766,2.223,97.6791,-0.455651,0.0750127,0.872368,1.57658,-0.772316,0.00599732,-0.780952,-4.03472,1.62024,0.2,-4,0,12255,49.231,28.319,13941.7
4069721762,0.634766,2.223,97.6739,-0.441785,0.0603124,0.87791,1.87058,-1.10402,-0.00322146,-0.646334,-3.81729,1.77002,-0.9,0,0,12255,49.231,28.319,13941.7
4069822112,0.634766,2.223,97.6754,-0.390046,0.051565,0.882155,2.16186,-1.41097,0.00908979,-0.437727,-3.51502,1.66738,-0.9,0,0,12255,49.231,28.319,13941.7
4069922461,0.634766,2.223,97.6763,-0.16441,0.104419,0.895943,2.42874,-1.68143,0.111048,-0.333514,-2.92694,1.65875,-0.9,0,0,12255,49.231,28.319,13941.7
4070022839,0.634766,2.223,97.6762,0.167254,0.153509,0.919826,2.3919,-1.80953,0.133053,-1.10269,0.274002,0.146534,-0.9,0,0,12255,49.231,28.319,13941.7
4070123244,0.634766,2.223,97.6752,0.368947,0.168064,0.934347,2.06406,-1.75762,0.0740763,-1.5682,3.44895,0.157739,-0.9,0,0,12255,49.231,28.319,13941.7
4070223605,0.634766,2.223,97.688,0.434167,0.164866,0.935427,1.62079,-1.61304,-0.0446851,-1.42375,4.43773,1.71889,-0.9,0,0,12255,49.27,28.69,14135.6
4070323905,0.634766,2.223,97.6951,0.411417,0.145397,0.927256,1.12537,-1.43963,-0.0594205,-1.3962,4.70142,2.11751,-0.9,0,0,12255,49.27,28.69,14135.6
4070424317,0.634766,2.223,97.6926,0.343378,0.116348,0.915531,0.684854,-1.27895,-0.0808196,-1.26665,4.22126,1.48576,-0.9,0,0,12255,49.27,28.69,14135.6
4070524682,0.634766,2.223,97.685,0.258396,0.0913143,0.908174,0.323416,-1.13427,-0.0845802,-0.930558,3.52706,1.22767,-0.9,0,0,12255,49.27,28.69,14135.6
4070625046,0.634766,2.223,97.6746,0.179055,0.0712371,0.903954,0.0389878,-1.02351,-0.0539616,-0.710782,2.68546,0.977714,-0.9,0,0,12255,49.27,28.69,14135.6
4070725414,0.634766,2.223,97.667,0.117765,0.056097,0.903023,-0.169797,-0.933743,-0.040256,-0.444362,2.03676,0.257987,3.7,-5,0,12255,49.27,28.69,14135.6
4070825735,0.634766,2.223,97.6548,0.0624997,0.0382528,0.900589,-0.321871,-0.872025,-0.0255238,-0.325544,1.34004,0.245733,3.7,-5,0,12255,49.27,28.69,14135.6
4070926101,0.634766,2.223,97.6536,-0.0877308,-0.0922678,0.903336,-0.426622,-0.829543,0.0211619,0.0113698,0.709268,0.440634,3.7,-5,0,12255,49.27,28.69,14135.6
4071026471,0.634766,2.223,97.6523,-0.229573,-0.194864,0.92321,-0.276439,-0.766567,-0.007054,1.70944,-1.18893,-0.346783,3.7,-5,0,12255,49.27,28.69,14135.6
4071126817,0.634766,2.223,97.6432,-0.314585,-0.253489,0.940743,0.0223168,-0.695457,-0.0600163,2.4157,-2.02618,1.14678,3.7,-5,0,12255,49.27,28.69,14135.6
4071227197,0.634766,2.223,97.6217,-0.35302,-0.279037,0.949595,0.439944,-0.644686,-0.0487736,2.65672,-2.64839,2.22535,3.7,-5,0,12255,49.145,30.253,14867.8
4071327554,0.634766,2.223,97.6043,-0.363145,-0.284967,0.951418,0.900251,-0.589882,-0.0422246,2.88483,-2.91552,2.19328,3.7,-5,0,12255,49.145,30.253,14867.8
4071427898,0.634766,2.223,97.578,-0.357947,-0.282902,0.950564,1.3612,-0.533318,-0.0361392,2.87656,-2.84358,2.37551,3.7,-5,0,12255,49.145,30.253,14867.8
4071528315,0.634766,2.223,97.5543,-0.35135,-0.277606,0.948314,1.82057,-0.485891,-0.014029,2.71772,-2.75147,2.35852,3.7,-5,0,12255,49.145,30.253,14867.8
4071628677,0.634766,2.223,97.5425,-0.345764,-0.270519,0.945584,2.25985,-0.424823,-0.00488158,2.83109,-2.64534,1.8369,3.7,-5,0,12255,49.145,30.253,14867.8
4071729121,0.634766,2.223,97.5335,-0.343062,-0.262836,0.942816,2.77048,-0.371355,-0.000845231,2.67458,-2.6429,1.70117,3.1,3.8,0,12255,49.145,30.253,14867.8
4071829486,0.634766,2.223,97.5268,-0.325187,-0.254852,0.937238,3.18577,-0.338459,-0.000638321,2.49636,-2.66851,1.48037,3.1,3.8,0,12255,49.145,30.253,14867.8
4071930627,0.634766,2.223,97.5233,-0.093745,-0.209753,0.893848,3.57569,-0.27765,0.0679039,2.4003,-1.86393,1.91109,3.1,3.8,0,12255,49.145,30.253,14867.8
4072032717,0.634766,2.223,97.5337,0.199744,-0.120091,0.878086,3.62733,-0.0709669,0.167733,1.48201,1.42367,0.799275,3.1,3.8,0,12255,49.145,30.253,14867.8
4072133075,0.634766,2.223,97.5559,0.374207,-0.060898,0.888872,3.40605,0.203544,0.104706,0.621778,3.7459,0.474534,3.1,3.8,0,12255,49.145,30.253,14867.8
4072233435,0.634766,2.223,97.5728,0.440944,-0.0359949,0.898818,3.06319,0.519817,0.0561604,0.166156,4.52225,1.88618,3.1,3.8,0,12255,49.219,27.423,13497.3
4072333793,0.634766,2.223,97.5867,0.47049,-0.0212674,0.908138,2.64777,0.862598,0.0402276,0.00384326,5.04809,2.27872,3.1,3.8,0,12255,49.219,27.423,13497.3
4072434153,0.634767,2.223,97.612,0.476244,-0.0213738,0.909996,2.21342,1.21101,0.0214975,0.0389589,5.08576,2.31893,3.1,3.8,0,12255,49.219,27.423,13497.3
4072534521,0.634767,2.223,97.633,0.467954,-0.0254894,0.9113,1.78747,1.54418,0.00860062,-0.0046336,5.01666,2.1444,3.1,3.8,0,12255,49.219,27.423,13497.3
4072635000,0.634767,2.223,97.6334,0.452686,-0.0308224,0.910882,1.36119,1.88491,-0.00959988,0.00522173,4.86153,2.32166,3.1,3.8,0,12255,49.219,27.423,13497.3
4072735387,0.634767,2.223,97.6338,0.432907,-0.045819,0.906739,0.94678,2.21328,-0.00814669,0.0930002,4.72721,2.07807,0.2,-1.9,0,12255,49.219,27.423,13497.3
4072835736,0.634767,2.223,97.6355,0.399623,-0.0468527,0.904344,0.56271,2.54154,-0.0152511,0.281899,4.46749,2.03084,0.2,-1.9,0,12255,49.219,27.423,13497.3
4072936724,0.634767,2.223,97.638,0.197176,0.0649874,0.910829,0.185704,2.86117,0.0802852,0.0164015,4.13584,1.6476,0.2,-1.9,0,12255,49.219,27.423,13497.3
4073037141,0.634767,2.223,97.6388,-0.125509,0.165644,0.889466,-0.032483,2.86206,0.0678807,-1.45252,1.02776,-0.458125,0.2,-1.9,0,12255,49.219,27.423,13497.3
4073137487,0.634767,2.223,97.637,-0.340084,0.203802,0.864149,-0.0309912,2.59435,-0.00816016,-2.04218,-2.04308,0.555056,0.2,-1.9,0,12255,49.219,27.423,13497.3
4073238757,0.634767,2.223,97.6373,-0.441558,0.211822,0.851783,0.090045,2.17061,-0.0444977,-2.29999,-3.49025,1.84258,0.2,-1.9,0,12255,49.263,28.142,13863.6
4073342111,0.634767,2.223,97.6341,-0.479317,0.203969,0.850326,0.279537,1.68424,-0.0525244,-2.30883,-4.10856,2.53107,0.2,-1.9,0,12255,49.263,28.142,13863.6
4073442425,0.634767,2.223,97.6268,-0.48252,0.196,0.851868,0.499389,1.17744,-0.0399242,-2.21076,-4.21556,2.8471,0.2,-1.9,0,12255,49.263,28.142,13863.6
4073542788,0.634767,2.223,97.6159,-0.458012,0.18125,0.857776,0.71702,0.687056,-0.034145,-2.07356,-4.18865,2.57987,0.2,-1.9,0,12255,49.263,28.142,13863.6
4073643135,0.634767,2.223,97.6047,-0.390913,0.150386,0.870181,0.920888,0.236176,-0.00535549,-1.84917,-3.73984,2.22539,0.2,-1.9,0,12255,49.263,28.142,13863.6
4073743530,0.634767,2.223,97.5947,-0.31826,0.112873,0.881904,1.08422,-0.124844,0.0128288,-1.53319,-3.0103,1.39039,-0.4,2.9,0,12255,49.263,28.142,13863.6
4073843845,0.634767,2.223,97.5917,-0.24371,0.0805918,0.888458,1.21816,-0.398289,0.0214796,-1.06477,-2.34505,0.884687,-0.4,2.9,0,12255,49.263,28.142,13863.6
4073944301,0.634767,2.223,97.5959,-0.0134032,0.0742026,0.903203,1.32454,-0.601836,0.0954067,-0.732769,-1.51047,0.757731,-0.4,2.9,0,12255,49.263,28.142,13863.6
4074044672,0.634767,2.223,97.6073,0.253137,0.0678321,0.91235,1.20251,-0.609325,0.0909743,-0.717825,1.77365,-0.326319,-0.4,2.9,0,12255,49.263,28.142,13863.6
4074145028,0.634767,2.223,97.6144,0.390509,0.0609145,0.911291,0.903458,-0.459764,-0.000989971,-0.572387,3.60841,0.838634,-0.4,2.9,0,12255,49.263,28.142,13863.6
4074245371,0.634767,2.223,97.61,0.45382,0.0574808,0.909112,0.500143,-0.228659,-0.0345584,-0.613619,4.66163,1.70893,-0.4,2.9,0,12255,49.263,28.142,13863.6
4074345723,0.634767,2.223,97.6076,0.473167,0.0586267,0.908392,0.0550424,0.04836,-0.0528491,-0.523885,4.91537,2.43197,-0.4,2.9,0,12255,49.196,30.832,15168.1
4074446070,0.634767,2.223,97.6095,0.469759,0.0638055,0.909468,-0.416358,0.349048,-0.046749,-0.514903,4.96951,2.78702,-0.4,2.9,0,12255,49.196,30.832,15168.1
4074546411,0.634767,2.223,97.6145,0.438998,0.0711078,0.911371,-0.883414,0.636871,-0.0277808,-0.618574,4.86545,2.53096,-0.4,2.9,0,12255,49.196,30.832,15168.1
4074646761,0.634767,2.223,97.6139,0.363562,0.0703658,0.909696,-1.32465,0.887132,-0.00543896,-0.719258,4.35583,2.19313,-0.4,2.9,0,12255,49.196,30.832,15168.1
4074747142,0.634767,2.223,97.6124,0.281352,0.0617885,0.906978,-1.6739,1.08235,0.0179205,-0.627337,3.54349,1.34839,3.5,0.2,0,12255,49.196,30.832,15168.1
4074847398,0.634767,2.223,97.6143,0.199314,0.0398497,0.90178,-1.93265,1.22289,0.0275434,-0.534241,2.59804,0.715747,3.5,0.2,0,12255,49.196,30.832,15168.1
4074947759,0.634767,2.223,97.6182,0.0253875,-0.112546,0.901022,-2.13405,1.33876,0.0996147,-0.26099,1.83957,0.615798,3.5,0.2,0,12255,49.196,30.832,15168.1
4075048128,0.634767,2.223,97.6249,-0.145789,-0.261867,0.921701,-2.02228,1.47744,0.0524485,2.01733,-0.510328,-0.430076,3.5,0.2,0,12255,49.196,30.832,15168.1
4075148495,0.634766,2.223,97.6282,-0.242541,-0.350596,0.94306,-1.70994,1.63308,-0.0185843,3.11349,-1.71052,0.967907,3.5,0.2,0,12255,49.196,30.832,15168.1
4075248855,0.634766,2.223,97.6222,-0.289131,-0.390785,0.953451,-1.26368,1.81241,-0.0303175,3.63002,-2.20529,2.35459,3.5,0.2,0,12255,49.196,30.832,15168.1
4075349198,0.634766,2.223,97.6122,-0.301327,-0.403704,0.955214,-0.757557,1.98575,-0.0342423,3.89795,-2.62517,2.50372,3.5,0.2,0,12255,49.187,29.929,14721.2
4075449551,0.634766,2.223,97.5865,-0.297054,-0.402434,0.952252,-0.135372,2.20565,-0.0309112,3.86858,-2.54375,2.81527,3.5,0.2,0,12255,49.187,29.929,14721.2
4075549901,0.634766,2.223,97.558,-0.268311,-0.374206,0.941379,0.375241,2.37977,-0.0238919,3.82993,-2.47829,2.54585,3.5,0.2,0,12255,49.187,29.929,14721.2
4075650254,0.634766,2.223,97.5371,-0.220152,-0.315727,0.926013,0.825901,2.53195,0.0138843,3.28388,-2.12042,2.17961,3.5,0.2,0,12255,49.187,29.929,14721.2
4075750671,0.634766,2.223,97.5238,-0.16917,-0.254068,0.914339,1.17728,2.65262,0.0297806,2.66736,-1.71735,1.17132,-3.3,0.6,0,12255,49.187,29.929,14721.2
4075851028,0.634766,2.223,97.5191,-0.122688,-0.174528,0.906009,1.44123,2.75054,0.0548149,2.02574,-1.15832,1.24998,-3.3,0.6,0,12255,49.187,29.929,14721.2
4075951382,0.634767,2.223,97.5169,-0.059773,0.0856579,0.899952,1.60199,2.79245,0.139657,0.584732,-0.659438,0.732913,-3.3,0.6,0,12255,49.187,29.929,14721.2
4076051686,0.634767,2.223,97.5376,-0.0193184,0.294716,0.898985,1.4748,2.59951,0.112269,-2.78253,-0.0179932,-0.173282,-3.3,0.6,0,12255,49.187,29.929,14721.2
4076152036,0.634767,2.223,97.5603,-0.000199496,0.405553,0.900654,1.24674,2.31022,0.0454143,-3.79687,0.218582,1.23791,-3.3,0.6,0,12255,49.187,29.929,14721.2
4076252382,0.634767,2.223,97.5817,0.00813186,0.46353,0.90197,0.932524,1.94641,0.0380936,-4.57646,0.3047,2.00333,-3.3,0.6,0,12255,49.187,29.929,14721.2
4076352723,0.634767,2.223,97.609,0.00671832,0.484582,0.901637,0.5921,1.5491,0.0199309,-4.88284,0.328714,2.12734,-3.3,0.6,0,12255,49.145,30.363,14921.9
4076453055,0.634767,2.223,97.642,0.00387133,0.488901,0.901341,0.243123,1.14022,0.0194357,-4.90097,0.316219,2.25299,-3.3,0.6,0,12255,49.145,30.363,14921.9
4076553400,0.634767,2.223,97.6651,0.00248523,0.483322,0.901415,-0.0998841,0.739563,0.00334121,-4.75297,0.309092,2.15251,-3.3,0.6,0,12255,49.145,30.363,14921.9
4076653745,0.634767,2.223,97.671,0.00131933,0.469682,0.901746,-0.443641,0.344927,-0.00010208,-4.61546,0.304829,2.07369,-3.3,0.6,0,12255,49.145,30.363,14921.9
4076754131,0.634767,2.223,97.6734,0.000753411,0.452409,0.902097,-0.777179,-0.031884,-0.0100221,-4.33608,0.320178,2.17987,4.1,-3.7,0,12255,49.145,30.363,14921.9
4076854738,0.634767,2.223,97.6697,-0.0146249,0.410381,0.894802,-1.10134,-0.406954,-0.0144584,-4.42943,0.292341,1.68459,4.1,-3.7,0,12255,49.145,30.363,14921.9
4076955148,0.634767,2.223,97.6659,-0.104318,0.167282,0.877603,-1.3811,-0.739533,0.00241752,-3.47702,-0.00177506,1.39261,4.1,-3.7,0,12255,49.145,30.363,14921.9
4077057038,0.634767,2.223,97.6601,-0.194661,-0.139081,0.906319,-1.35276,-0.867096,0.0360245,-0.0555561,-1.07573,0.210552,4.1,-3.7,0,12255,49.145,30.363,14921.9
4077158426,0.634767,2.223,97.6555,-0.248685,-0.291144,0.936101,-1.08219,-0.815794,-0.0313883,2.48916,-1.84723,0.298646,4.1,-3.7,0,12255,49.145,30.363,14921.9
4077263376,0.634767,2.223,97.6456,-0.278237,-0.364812,0.954974,-0.692061,-0.699449,-0.0570101,3.31138,-2.14738,1.89247,4.1,-3.7,0,12255,49.145,30.363,14921.9
4077363738,0.634767,2.223,97.6247,-0.284636,-0.389236,0.962604,-0.227085,-0.529511,-0.0577992,3.89611,-2.25564,2.35329,4.1,-3.7,0,12255,49.099,30.659,15053.3
4077464093,0.634767,2.223,97.5866,-0.285545,-0.389314,0.963587,0.24057,-0.343327,-0.0576207,3.91079,-2.15307,2.52588,4.1,-3.7,0,12255,49.099,30.659,15053.3
4077564471,0.634767,2.223,97.5552,-0.281086,-0.37794,0.961351,0.710461,-0.160115,-0.0432781,3.76226,-2.19314,2.59003,4.1,-3.7,0,12255,49.099,30.659,15053.3
4077664840,0.634767,2.223,97.538,-0.278609,-0.359928,0.957974,1.16899,0.0247696,-0.0170743,3.56364,-2.05664,2.47118,4.1,-3.7,0,12255,49.099,30.659,15053.3
4077765261,0.634767,2.223,97.5301,-0.277857,-0.342346,0.954394,1.59713,0.177147,0.000770979,3.23931,-2.06899,1.91753,-1.6,-2.3,0,12255,49.099,30.659,15053.3
4077865826,0.634767,2.223,97.5285,-0.273091,-0.313015,0.948649,2.00626,0.323399,0.0166577,3.08686,-1.99047,1.80808,-1.6,-2.3,0,12255,49.099,30.659,15053.3
4077966183,0.634767,2.223,97.5323,-0.210152,-0.0903322,0.926365,2.41456,0.453605,0.101771,2.71491,-1.87877,2.10989,-1.6,-2.3,0,12255,49.099,30.659,15053.3
4078066540,0.634767,2.223,97.55,-0.140957,0.20584,0.89677,2.53447,0.360883,0.193916,-0.798321,-1.19236,0.44675,-1.6,-2.3,0,12255,49.099,30.659,15053.3
4078166870,0.634767,2.223,97.5733,-0.107303,0.356266,0.882913,2.39917,0.101821,0.118959,-3.21426,-0.494002,0.413302,-1.6,-2.3,0,12255,49.099,30.659,15053.3
4078267146,0.634767,2.223,97.5936,-0.0943013,0.42838,0.876083,2.17898,-0.2308,0.0676739,-4.05057,-0.252693,1.56896,-1.6,-2.3,0,12255,49.099,30.659,15053.3
4078367505,0.634767,2.223,97.6767,-0.092435,0.459208,0.869032,1.9074,-0.605317,0.052896,-4.64997,-0.124054,1.42085,-1.6,-2.3,0,12255,49.129,30.246,14859.6
4078467868,0.634767,2.223,97.7188,-0.093913,0.442331,0.865369,1.62382,-0.985765,0.0174321,-4.64621,-0.140048,1.77558,-1.6,-2.3,0,12255,49.129,30.246,14859.6
4078568269,0.634767,2.223,97.7277,-0.0898673,0.382744,0.86746,1.35187,-1.35428,0.0189585,-4.27823,-0.138505,1.52519,-1.6,-2.3,0,12255,49.129,30.246,14859.6
4078668574,0.634767,2.223,97.7359,-0.0889538,0.309789,0.87172,1.13081,-1.65047,0.0114022,-3.47309,-0.11416,1.01135,-1.6,-2.3,0,12255,49.129,30.246,14859.6
4078768959,0.634767,2.223,97.755,-0.0868394,0.239972,0.877421,0.966519,-1.88596,0.000356153,-2.70282,-0.242374,0.552565,-4.4,2.4,0,12255,49.129,30.246,14859.6
4078869322,0.634767,2.223,97.7606,-0.0791821,0.18716,0.882164,0.827669,-2.06985,0.00984118,-2.18368,-0.165173,0.150255,-4.4,2.4,0,12255,49.129,30.246,14859.6
4078969684,0.634767,2.223,97.7542,0.0699248,0.188121,0.906222,0.713485,-2.22132,0.0746068,-1.59805,0.120132,0.756678,-4.4,2.4,0,12255,49.129,30.246,14859.6
4079070036,0.634767,2.223,97.7556,0.237724,0.213559,0.926806,0.45661,-2.24964,0.0188666,-1.81045,2.17521,-0.451117,-4.4,2.4,0,12255,49.129,30.246,14859.6
4079170468,0.634767,2.223,97.7487,0.346647,0.227422,0.933902,-0.0229333,-2.18376,-0.086653,-1.9162,3.51019,1.30989,-4.4,2.4,0,12255,49.129,30.246,14859.6
4079270835,0.634767,2.223,97.7346,0.398563,0.229915,0.932814,-0.538476,-2.08004,-0.117791,-2.04155,4.25334,2.05706,-4.4,2.4,0,12255,49.129,30.246,14859.6
4079371184,0.634767,2.223,97.7158,0.403456,0.227085,0.926339,-1.06287,-1.94735,-0.133454,-1.90852,4.26942,2.4373,-4.4,2.4,0,12255,49.129,30.246,14859.6
4079471480,0.634767,2.223,97.6936,0.384338,0.231875,0.924133,-1.57716,-1.80743,-0.131651,-1.79883,4.20023,2.34882,-4.4,2.4,0,12255,49.129,30.246,14859.6
4079571748,0.634767,2.223,97.6653,0.350466,0.243328,0.925169,-2.08642,-1.69367,-0.109162,-1.92766,3.93065,2.4945,-4.4,2.4,0,12255,49.129,30.246,14859.6
4079672076,0.634767,2.223,97.6472,0.312908,0.266104,0.929215,-2.57455,-1.61466,-0.0624006,-2.14494,3.68075,2.12412,-4.4,2.4,0,12255,49.129,30.246,14859.6
4079772480,0.634767,2.223,97.6499,0.271065,0.282407,0.930278,-3.02231,-1.58671,-0.0469962,-2.38733,3.21521,1.63673,2.1,3.4,0,12255,49.129,30.246,14859.6
4079872839,0.634767,2.223,97.6609,0.215349,0.244349,0.920036,-3.43756,-1.58877,-0.016159,-2.26544,2.64139,1.9584,2.1,3.4,0,12255,49.129,30.246,14859.6
4079973202,0.634767,2.223,97.6921,0.174778,-0.00556104,0.901607,-3.77309,-1.56338,0.139029,-1.41312,2.2892,1.39833,2.1,3.4,0,12211,49.106,30.191,14825.6
4080073505,0.634767,2.223,97.7293,0.122153,-0.295361,0.886654,-3.79951,-1.28694,0.162651,2.38706,1.63752,0.143232,2.1,3.4,0,12211,49.106,30.191,14825.6
4080173857,0.634766,2.223,97.7436,0.08234,-0.435617,0.879342,-3.64834,-0.9042,0.0119144,4.40143,0.997068,-0.250548,2.1,3.4,0,12211,49.106,30.191,14825.6
4080274198,0.634766,2.223,97.739,0.0559305,-0.48741,0.875632,-3.40297,-0.457858,-0.101269,4.67811,0.655278,1.95094,2.1,3.4,0,12211,49.106,30.191,14825.6
4080374511,0.634766,2.223,97.7189,0.0495704,-0.49478,0.871608,-3.0892,0.0242463,-0.12975,5.02201,0.465188,2.34498,2.1,3.4,0,12211,49.106,30.191,14825.6
4080474865,0.634766,2.223,97.6895,0.0670658,-0.480821,0.867908,-2.79234,0.490423,-0.14511,4.763,0.565073,2.54539,2.1,3.4,0,12211,49.106,30.191,14825.6
4080575264,0.634766,2.223,97.641,0.0959485,-0.452198,0.865574,-2.50195,0.99024,-0.130619,4.60652,0.730772,3.02815,2.1,3.4,0,12211,49.106,30.191,14825.6
4080675606,0.634766,2.223,97.5995,0.115572,-0.422821,0.864679,-2.24425,1.49932,-0.0726483,4.44147,1.04086,2.97962,2.1,3.4,0,12211,49.106,30.191,14825.6
4080775999,0.634766,2.223,97.5845,0.123081,-0.382911,0.868116,-2.04173,1.97672,-0.047123,4.06054,1.29696,2.49671,2.2,1.5,0,12211,49.106,30.191,14825.6
4080876369,0.634766,2.223,97.5796,0.0810845,-0.316449,0.883311,-1.86839,2.40625,-0.00659502,3.50019,1.33443,2.06701,2.2,1.5,0,12211,49.106,30.191,14825.6
4080976662,0.634766,2.223,97.5844,-0.0855225,-0.250276,0.916615,-1.69027,2.7258,0.0792795,2.89728,0.426188,1.2568,2.2,1.5,0,12167,49.339,24.751,12211.9
4081077022,0.634766,2.223,97.6006,-0.198397,-0.195486,0.924136,-1.4322,2.83859,0.0520498,2.09266,-1.36791,-0.307419,2.2,1.5,0,12167,49.339,24.751,12211.9
4081177386,0.634766,2.223,97.6203,-0.234882,-0.15091,0.918928,-1.14592,2.85284,0.0121839,1.43948,-1.96663,0.693995,2.2,1.5,0,12167,49.339,24.751,12211.9
4081277748,0.634766,2.223,97.6434,-0.215994,-0.121363,0.912933,-0.869756,2.83745,0.0160697,1.18122,-1.96506,0.583423,2.2,1.5,0,12167,49.339,24.751,12211.9
4081378096,0.634766,2.223,97.6651,-0.182471,-0.0960146,0.906993,-0.647669,2.81534,0.0327421,0.881684,-1.64081,0.422729,2.2,1.5,0,12167,49.339,24.751,12211.9
4081478452,0.634766,2.223,97.6824,-0.145429,-0.0758751,0.902539,-0.470919,2.78381,0.0311626,0.60345,-1.32966,0.0799106,2.2,1.5,0,12167,49.339,24.751,12211.9
4081578813,0.634766,2.223,97.6861,-0.11078,-0.0610808,0.899531,-0.333674,2.74944,0.0256423,0.350973,-1.06221,-0.0599276,2.2,1.5,0,12167,49.339,24.751,12211.9
4081679166,0.634766,2.223,97.6848,-0.0850497,-0.0529827,0.897939,-0.24355,2.72104,0.0158646,0.225077,-0.651051,-0.162379,2.2,1.5,0,12167,49.339,24.751,12211.9
4081779563,0.634766,2.223,97.6818,-0.0665559,-0.0475497,0.896547,-0.17121,2.69849,0.00992402,0.189812,-0.499499,-0.29005,1.9,3.4,0,12167,49.339,24.751,12211.9
4081879952,0.634766,2.223,97.6752,-0.0406975,-0.0396714,0.89296,-0.117801,2.6847,0.00161198,0.125181,-0.228242,0.145183,1.9,3.4,0,12167,49.339,24.751,12211.9
4081980356,0.634766,2.223,97.6602,0.108245,-0.0126907,0.890845,-0.0868099,2.67811,0.0529487,0.0759875,0.193917,0.126322,1.9,3.4,0,12167,49.339,25.804,12731.4
4082080772,0.634766,2.223,97.644,0.228854,0.0065653,0.896559,-0.236122,2.7456,-0.0224544,-0.393548,2.02796,-0.37724,1.9,3.4,0,12167,49.339,25.804,12731.4
4082181151,0.634766,2.223,97.626,0.277046,0.0145146,0.901973,-0.472491,2.8632,-0.0654268,-0.512222,2.65839,0.800502,1.9,3.4,0,12167,49.339,25.804,12731.4
4082281453,0.634766,2.223,97.6122,0.267419,0.0149073,0.906174,-0.744358,3.00404,-0.0538911,-0.530742,2.92876,0.990038,1.9,3.4,0,12167,49.339,25.804,12731.4
4082381779,0.634766,2.223,97.607,0.22706,0.00316594,0.906101,-0.99697,3.1294,-0.0432473,-0.453213,2.66133,0.748773,1.9,3.4,0,12167,49.339,25.804,12731.4
4082482149,0.634766,2.223,97.6004,0.180108,-0.010801,0.904603,-1.20154,3.23796,-0.0169865,-0.307824,2.21908,0.7127,1.9,3.4,0,12167,49.339,25.804,12731.4
4082582495,0.634766,2.223,97.5914,0.134563,-0.0255276,0.903036,-1.34757,3.32735,-0.00227503,-0.104054,1.64088,0.426938,1.9,3.4,0,12167,49.339,25.804,12731.4
4082682844,0.634766,2.223,97.5887,0.0979217,-0.0345484,0.90174,-1.45761,3.39468,-0.00298249,-0.0305651,1.18723,0.17678,1.9,3.4,0,12167,49.339,25.804,12731.4
4082783186,0.634766,2.223,97.5881,0.0704326,-0.040746,0.900504,-1.5337,3.45368,0.00888209,0.104161,0.844408,0.0385164,3.5,1.2,0,12167,49.339,25.804,12731.4
4082883540,0.634766,2.223,97.594,0.0364913,-0.0497081,0.900041,-1.5773,3.49525,0.0272411,0.0945887,0.525385,0.264972,3.5,1.2,0,12167,49.339,25.804,12731.4
4082983894,0.634766,2.223,97.6023,-0.103328,-0.122275,0.90787,-1.60552,3.5239,0.0898507,0.218701,0.0910602,0.0896893,3.5,1.2,0,12167,49.224,26.94,13260.9
4083084304,0.634766,2.223,97.6088,-0.242782,-0.197742,0.922777,-1.42724,3.51502,0.0344841,1.24875,-1.78763,-0.25866,3.5,1.2,0,12167,49.224,26.94,13260.9
4083184681,0.634766,2.223,97.6066,-0.322772,-0.24922,0.93284,-1.10071,3.4891,-0.0254512,1.85519,-2.71679,1.21886,3.5,1.2,0,12167,49.224,26.94,13260.9
4083285742,0.634766,2.223,97.5976,-0.330867,-0.265685,0.932898,-0.676338,3.45179,-0.0269455,2.1681,-3.22965,1.8498,3.5,1.2,0,12167,49.224,26.94,13260.9
4083390458,0.634766,2.223,97.5863,-0.283009,-0.249453,0.92273,-0.180181,3.43037,-0.000921412,2.17841,-2.92589,1.58161,3.5,1.2,0,12167,49.224,26.94,13260.9
4083490819,0.634766,2.223,97.5757,-0.220609,-0.220254,0.913205,0.152071,3.41748,0.0160005,1.78284,-2.32341,1.39864,3.5,1.2,0,12167,49.224,26.94,13260.9
4083591155,0.634766,2.223,97.5653,-0.160991,-0.194976,0.90792,0.405985,3.42819,0.0202237,1.57932,-1.70825,0.451101,3.5,1.2,0,12167,49.224,26.94,13260.9
4083691518,0.634766,2.223,97.5596,-0.111448,-0.170137,0.905263,0.594758,3.46204,0.0239656,1.31548,-1.07477,0.674668,3.5,1.2,0,12167,49.224,26.94,13260.9
4083791941,0.634766,2.223,97.5618,-0.0852059,-0.150245,0.903351,0.744168,3.49905,0.0324148,1.11396,-0.756288,0.311084,-1.9,0.3,0,12167,49.224,26.94,13260.9
4083892346,0.634766,2.223,97.5619,-0.0673025,-0.11073,0.901034,0.85968,3.52743,0.0403933,0.859742,-0.56159,0.668359,-1.9,0.3,0,12167,49.224,26.94,13260.9
4083992694,0.634766,2.223,97.5697,-0.0703862,0.112513,0.89691,0.946243,3.52109,0.126938,-0.00840779,-0.481974,0.695923,-1.9,0.3,0,12167,49.347,26.629,13140.6
4084093017,0.634766,2.223,97.5898,-0.0806485,0.295904,0.887549,0.837236,3.27688,0.0874326,-2.84693,-0.600958,-0.280389,-1.9,0.3,0,12167,49.347,26.629,13140.6
4084193424,0.634766,2.223,97.5979,-0.0895276,0.397769,0.879906,0.659096,2.94523,0.015493,-3.80117,-0.579591,0.870104,-1.9,0.3,0,12167,49.347,26.629,13140.6
4084293784,0.634766,2.223,97.6148,-0.0955002,0.450102,0.874212,0.415759,2.52521,-0.00110954,-4.40183,-0.595984,2.11652,-1.9,0.3,0,12167,49.347,26.629,13140.6
4084394132,0.634766,2.223,97.6409,-0.103893,0.472046,0.871212,0.15276,2.07858,-0.0252398,-4.73466,-0.60219,1.9671,-1.9,0.3,0,12167,49.347,26.629,13140.6
4084494506,0.634766,2.223,97.6584,-0.111007,0.474437,0.870228,-0.109458,1.61657,-0.0323697,-4.74608,-0.72022,2.21843,-1.9,0.3,0,12167,49.347,26.629,13140.6
4084594845,0.634766,2.223,97.6504,-0.116913,0.459085,0.87086,-0.364116,1.14169,-0.0238963,-4.43996,-0.821904,2.64427,-1.9,0.3,0,12167,49.347,26.629,13140.6
4084695130,0.634766,2.223,97.6479,-0.122231,0.43165,0.87253,-0.615351,0.678264,-0.0213248,-4.54718,-0.841465,2.01747,-1.9,0.3,0,12167,49.347,26.629,13140.6
4084795605,0.634766,2.223,97.6447,-0.113055,0.369525,0.878354,-0.834482,0.241513,-0.00731062,-4.016,-0.880343,2.08087,-1.1,2.2,0,12167,49.347,26.629,13140.6
4084895906,0.634766,2.223,97.6405,-0.0768925,0.287144,0.887425,-1.00361,-0.112056,0.0238474,-3.25226,-0.807227,1.66554,-1.1,2.2,0,12167,49.347,26.629,13140.6
4084996351,0.634766,2.223,97.6479,0.0868643,0.14409,0.913953,-1.16657,-0.369486,0.132284,-2.40181,-0.0395069,0.287291,-1.1,2.2,0,12167,49.32,24.855,12258.5
4085096766,0.634766,2.223,97.6606,0.218382,0.0320277,0.908076,-1.35615,-0.347482,0.0383683,-0.666117,1.90555,-0.784249,-1.1,2.2,0,12167,49.32,24.855,12258.5
4085197069,0.634766,2.223,97.6618,0.265802,-0.0229124,0.895961,-1.57588,-0.192753,-0.0336297,0.0686633,2.62881,0.604444,-1.1,2.2,0,12167,49.32,24.855,12258.5
4085297483,0.634766,2.223,97.659,0.253338,-0.0376251,0.890614,-1.79771,0.00982338,-0.033554,0.386634,2.84302,0.759857,-1.1,2.2,0,12167,49.32,24.855,12258.5
4085401271,0.634766,2.223,97.6531,0.209069,-0.0339187,0.890563,-1.98911,0.212419,-0.032792,0.515,2.59793,0.675599,-1.1,2.2,0,12167,49.32,24.855,12258.5
4085506165,0.634766,2.223,97.648,0.160459,-0.022993,0.89234,-2.13983,0.366176,-0.0231367,0.332865,1.96901,0.509065,-1.1,2.2,0,12167,49.32,24.855,12258.5
4085606523,0.634766,2.223,97.6358,0.119106,-0.0136896,0.89452,-2.26249,0.487836,-0.0195841,0.211143,1.53593,0.120254,-1.1,2.2,0,12167,49.32,24.855,12258.5
4085708785,0.634766,2.223,97.6262,0.0851775,-0.0072054,0.896511,-2.35948,0.603013,-0.00912182,0.225661,1.04051,0.207618,-1.1,2.2,0,12167,49.32,24.855,12258.5
4085812903,0.634766,2.223,97.6239,0.0561359,-0.000277262,0.897859,-2.42363,0.669327,-0.0125467,0.0655744,0.740229,0.0633849,-4.7,4.2,0,12167,49.32,24.855,12258.5
4085913270,0.634766,2.223,97.615,0.0446677,0.0253105,0.901521,-2.46669,0.729131,-0.00530202,0.0970322,0.519622,0.598629,-4.7,4.2,0,12167,49.32,24.855,12258.5
4086013635,0.634766,2.223,97.6061,0.0957343,0.153263,0.907634,-2.53293,0.751844,0.0397115,-0.689686,0.609286,0.00115712,-4.7,4.2,0,12167,49.322,25.451,12552.9
4086113969,0.634766,2.223,97.6008,0.148077,0.25594,0.918515,-2.74668,0.689158,-0.011346,-2.0328,1.15699,0.317184,-4.7,4.2,0,12167,49.322,25.451,12552.9
4086214337,0.634766,2.223,97.5977,0.181867,0.317132,0.927508,-3.04556,0.590783,-0.0301778,-2.72695,1.52745,1.08279,-4.7,4.2,0,12167,49.322,25.451,12552.9
4086314687,0.634765,2.223,97.5952,0.196112,0.346835,0.931513,-3.4168,0.461478,-0.0145837,-3.17026,1.82789,1.57816,-4.7,4.2,0,12167,49.322,25.451,12552.9
4086415033,0.634765,2.223,97.611,0.194987,0.359149,0.933151,-3.77523,0.326268,-0.0171071,-3.15886,1.69657,1.37172,-4.7,4.2,0,12167,49.322,25.451,12552.9
4086515387,0.634765,2.223,97.6201,0.187173,0.364544,0.933667,-4.13785,0.176418,0.00667859,-3.20153,1.65285,1.75324,-4.7,4.2,0,12167,49.322,25.451,12552.9
4086615728,0.634765,2.223,97.6214,0.178234,0.36632,0.933462,-4.49307,0.0196023,0.0219911,-3.26501,1.60795,1.48983,-4.7,4.2,0,12167,49.322,25.451,12552.9
4086716055,0.634765,2.223,97.6244,0.163903,0.353525,0.930727,-4.8374,-0.143513,0.0115284,-3.30806,1.53525,1.35523,-4.7,4.2,0,12167,49.322,25.451,12552.9
4086816500,0.634765,2.223,97.6352,0.139126,0.317382,0.924488,-5.15507,-0.30545,0.0282491,-2.93322,1.27639,1.40353,2.3,0,0,12167,49.322,25.451,12552.9
4086916830,0.634765,2.223,97.6448,0.100865,0.247102,0.912624,-5.4204,-0.443612,0.0445428,-2.62191,1.08097,0.810513,2.3,0,0,12167,49.322,25.451,12552.9
4087017178,0.634765,2.223,97.6561,-0.0403687,-0.0323189,0.899504,-5.60537,-0.55408,0.0948651,-1.50789,0.45267,0.546261,2.3,0,0,12167,49.322,25.451,12552.9
4087117507,0.634765,2.223,97.673,-0.167265,-0.256264,0.923161,-5.42644,-0.48032,0.121468,2.08898,-1.18438,-0.281743,2.3,0,0,12123,49.203,27.962,13758.1
4087221254,0.634765,2.223,97.6871,-0.239054,-0.364561,0.946762,-5.07016,-0.329496,0.0126152,3.46639,-1.95085,0.883336,2.3,0,0,12123,49.203,27.962,13758.1
4087321609,0.634765,2.223,97.6777,-0.281804,-0.411056,0.959724,-4.59062,-0.155237,-0.0404697,3.97275,-2.47047,2.28566,2.3,0,0,12123,49.203,27.962,13758.1
4087421970,0.634765,2.223,97.6523,-0.29813,-0.423689,0.963695,-4.04879,0.0369676,-0.0613665,4.26005,-2.61802,2.65768,2.3,0,0,12123,49.203,27.962,13758.1
4087522311,0.634765,2.223,97.6166,-0.296468,-0.420541,0.962678,-3.47829,0.225294,-0.0758241,4.23111,-2.74992,3.00657,2.3,0,0,12123,49.203,27.962,13758.1
4087622645,0.634764,2.223,97.572,-0.285804,-0.409505,0.958616,-2.91586,0.42273,-0.0839873,4.21328,-2.5971,3.00655,2.3,0,0,12123,49.203,27.962,13758.1
4087722952,0.634764,2.223,97.5347,-0.274302,-0.397425,0.954409,-2.36606,0.624944,-0.0615044,4.03106,-2.39142,3.27178,2.3,0,0,12123,49.203,27.962,13758.1
4087823421,0.634764,2.223,97.514,-0.263383,-0.383883,0.950931,-1.82961,0.822005,-0.0301835,3.9377,-2.35331,2.81186,2.9,-0.9,0,12123,49.203,27.962,13758.1
4087923788,0.634764,2.223,97.5015,-0.258129,-0.362573,0.94695,-1.33028,1.00705,-0.0167872,3.75269,-2.26256,2.30714,2.9,-0.9,0,12123,49.203,27.962,13758.1
4088024122,0.634764,2.223,97.4911,-0.275305,-0.327269,0.944529,-0.8539,1.169,0.00174976,3.35428,-2.26081,2.39412,2.9,-0.9,0,12123,49.203,27.962,13758.1
4088124473,0.634764,2.223,97.49,-0.273719,-0.308939,0.943702,-0.391248,1.27903,0.0281504,3.0726,-2.39272,1.96545,2.9,-0.9,0,12123,49.23,26.604,13097.1
4088224852,0.634764,2.223,97.5071,-0.270984,-0.299314,0.942953,0.0425603,1.37898,0.0537633,2.88584,-2.29942,1.68544,2.9,-0.9,0,12123,49.23,26.604,13097.1
4088325214,0.634764,2.223,97.5285,-0.264564,-0.291628,0.941868,0.453881,1.48152,0.064588,2.81802,-2.22642,1.51083,2.9,-0.9,0,12123,49.23,26.604,13097.1
4088425569,0.634765,2.223,97.5505,-0.241912,-0.260001,0.934166,0.840504,1.58191,0.0691627,2.67496,-2.06752,1.23685,2.9,-0.9,0,12123,49.23,26.604,13097.1
4088525926,0.634765,2.223,97.5711,-0.213548,-0.228411,0.926934,1.16718,1.64769,0.0847055,2.18663,-1.87085,0.946784,2.9,-0.9,0,12123,49.23,26.604,13097.1
4088626250,0.634765,2.223,97.5858,-0.184269,-0.192467,0.919324,1.43465,1.70789,0.0806319,1.87337,-1.53804,0.385626,2.9,-0.9,0,12123,49.23,26.604,13097.1
4088726617,0.634765,2.223,97.6086,-0.157095,-0.153621,0.910958,1.65298,1.74574,0.0839225,1.46633,-1.35942,0.0237705,2.9,-0.9,0,12123,49.23,26.604,13097.1
4088827029,0.634765,2.223,97.6258,-0.135559,-0.119563,0.905113,1.82461,1.7601,0.0767789,1.05655,-1.11312,0.130951,-0.3,-0.9,0,12123,49.23,26.604,13097.1
4088927362,0.634765,2.223,97.6404,-0.113832,-0.078998,0.901033,1.95041,1.75557,0.0772183,0.647625,-0.866555,0.115817,-0.3,-0.9,0,12123,49.23,26.604,13097.1
4089029324,0.634765,2.223,97.6524,-0.0784265,0.13648,0.895434,2.02737,1.71751,0.176155,-0.469887,-0.467414,0.26595,-0.3,-0.9,0,12123,49.23,26.604,13097.1
4089133486,0.634765,2.223,97.6773,-0.0661819,0.347281,0.886049,1.87514,1.4813,0.0842245,-3.20976,-0.26216,-0.679951,-0.3,-0.9,0,12123,49.222,27.976,13770.3
4089233937,0.634765,2.223,97.6844,-0.069295,0.431381,0.87792,1.63659,1.142,-0.0244682,-4.04591,-0.237193,1.24116,-0.3,-0.9,0,12123,49.222,27.976,13770.3
4089334302,0.634765,2.223,97.6821,-0.0649635,0.43149,0.87445,1.34203,0.722908,-0.0468089,-4.4777,-0.25313,2.07624,-0.3,-0.9,0,12123,49.222,27.976,13770.3
4089434655,0.634765,2.223,97.6921,-0.0604643,0.376728,0.875091,1.06613,0.347278,-0.0624314,-4.02156,-0.152534,1.69155,-0.3,-0.9,0,12123,49.222,27.976,13770.3
4089535006,0.634765,2.223,97.6908,-0.0604934,0.29771,0.878096,0.831984,0.0470698,-0.0650296,-3.32002,-0.0566838,1.18807,-0.3,-0.9,0,12123,49.222,27.976,13770.3
4089635312,0.634765,2.223,97.6548,-0.0672567,0.228522,0.881858,0.645548,-0.200424,-0.0527809,-2.64279,-0.0755471,0.931182,-0.3,-0.9,0,12123,49.222,27.976,13770.3
4089735640,0.634765,2.223,97.6273,-0.0726493,0.159594,0.886591,0.515949,-0.404897,-0.0366223,-1.99509,-0.279545,0.382278,-0.3,-0.9,0,12123,49.222,27.976,13770.3
4089836141,0.634765,2.223,97.6316,-0.0771228,0.104616,0.891258,0.425199,-0.558564,-0.0246847,-1.35123,-0.268657,0.428952,-1.5,-1.9,0,12123,49.222,27.976,13770.3
4089936477,0.634765,2.223,97.6403,-0.0901728,0.0808897,0.891495,0.377387,-0.665044,-0.00267326,-0.684373,-0.286736,0.6686,-1.5,-1.9,0,12123,49.222,27.976,13770.3
4090036867,0.634765,2.223,97.6342,-0.152294,0.136458,0.887072,0.349633,-0.774836,0.0206217,-0.986571,-0.667153,-0.20855,-1.5,-1.9,0,12123,49.222,27.976,13770.3
4090137221,0.634765,2.223,97.6328,-0.208855,0.18027,0.87908,0.323529,-0.987745,-0.0130546,-1.58864,-1.23387,0.407381,-1.5,-1.9,0,12123,49.038,30.88,15142.9
4090237550,0.634765,2.223,97.6433,-0.229767,0.190291,0.876265,0.318477,-1.26547,-0.00737713,-1.91291,-1.6719,0.776407,-1.5,-1.9,0,12123,49.038,30.88,15142.9
4090337963,0.634765,2.223,97.6531,-0.223144,0.173914,0.878796,0.325604,-1.53961,-0.00220537,-1.75429,-1.65606,0.851242,-1.5,-1.9,0,12123,49.038,30.88,15142.9
4090438327,0.634765,2.223,97.6551,-0.202448,0.144932,0.883918,0.338935,-1.78128,-0.000244852,-1.52897,-1.5087,0.713385,-1.5,-1.9,0,12123,49.038,30.88,15142.9
4090538677,0.634765,2.223,97.6539,-0.174969,0.113558,0.889073,0.363762,-1.98239,0.00699833,-1.19105,-1.38147,0.514084,-1.5,-1.9,0,12123,49.038,30.88,15142.9
4090639029,0.634765,2.223,97.6575,-0.147035,0.0834033,0.89339,0.387991,-2.12547,0.0107984,-0.799569,-1.01788,0.259929,-1.5,-1.9,0,12123,49.038,30.88,15142.9
4090739340,0.634765,2.223,97.6619,-0.12417,0.0641956,0.895909,0.400597,-2.23142,0.0119427,-0.671443,-0.753854,0.0149588,-1.5,-1.9,0,12123,49.038,30.88,15142.9
4090839691,0.634765,2.223,97.6571,-0.107394,0.0481641,0.897221,0.414094,-2.30489,0.00160779,-0.425863,-0.480627,0.109991,-0.7,-3.1,0,12123,49.038,30.88,15142.9
4090940074,0.634765,2.223,97.6533,-0.113218,0.0189756,0.896543,0.421748,-2.3532,0.00144031,-0.286633,-0.245415,0.471064,-0.7,-3.1,0,12123,49.038,30.88,15142.9
4091040433,0.634765,2.223,97.6511,-0.175238,-0.0434979,0.900149,0.468462,-2.38789,0.00412547,0.192372,-0.752953,-0.321885,-0.7,-3.1,0,12123,49.038,30.88,15142.9
4091140710,0.634765,2.223,97.6482,-0.238159,-0.0904929,0.910267,0.611692,-2.41472,-0.0395775,0.762192,-1.40032,0.197732,-0.7,-3.1,0,12123,49.275,25.191,12412.9
4091241041,0.634765,2.223,97.6425,-0.264032,-0.10975,0.916907,0.847443,-2.43608,-0.035198,1.18952,-1.82545,0.992293,-0.7,-3.1,0,12123,49.275,25.191,12412.9
4091341396,0.634765,2.223,97.6368,-0.262214,-0.102906,0.917872,1.08724,-2.4537,-0.0220726,1.21452,-1.80868,0.838593,-0.7,-3.1,0,12123,49.275,25.191,12412.9
4091441744,0.634765,2.223,97.6178,-0.243915,-0.0826285,0.914172,1.29464,-2.49178,-0.0213658,0.884793,-1.70593,0.682828,-0.7,-3.1,0,12123,49.275,25.191,12412.9
4091542100,0.634765,2.223,97.6026,-0.218127,-0.0616071,0.909449,1.48977,-2.52497,-0.00963785,0.804988,-1.60139,0.443969,-0.7,-3.1,0,12123,49.275,25.191,12412.9
4091642458,0.634765,2.223,97.5984,-0.189897,-0.0432587,0.905746,1.64744,-2.56034,-0.00386738,0.598541,-1.34093,0.220113,-0.7,-3.1,0,12123,49.275,25.191,12412.9
4091742816,0.634765,2.223,97.5898,-0.164183,-0.0323817,0.90377,1.78006,-2.57915,0.00706697,0.538857,-1.04825,0.348182,-0.7,-3.1,0,12123,49.275,25.191,12412.9
4091843220,0.634765,2.223,97.5877,-0.143584,-0.0223705,0.902604,1.87531,-2.59083,0.0214393,0.397823,-0.730165,0.19263,0.3,5,0,12123,49.275,25.191,12412.9
4091943590,0.634765,2.223,97.588,-0.114881,-0.0169122,0.900198,1.94404,-2.59104,0.0184922,0.318787,-0.428615,0.0670793,0.3,5,0,12123,49.275,25.191,12412.9
4092043968,0.634765,2.223,97.5943,0.0998752,-0.030903,0.896531,2.00327,-2.58432,0.0788023,0.289211,-0.0964968,0.793452,0.3,5,0,12123,49.275,25.191,12412.9
4092144378,0.634765,2.223,97.612,0.310273,-0.0439712,0.891424,1.84248,-2.36912,0.123981,0.588059,2.97738,0.116351,0.3,5,0,12123,49.275,25.191,12412.9
4092244728,0.634765,2.223,97.6268,0.424112,-0.0399872,0.890187,1.55812,-2.05004,0.0284486,0.607689,4.30236,1.02541,0.3,5,0,12123,49.271,25.722,12673.5
4092345088,0.634765,2.223,97.6287,0.487365,-0.0325494,0.892084,1.18163,-1.66534,-0.0226921,0.492063,4.96671,2.14372,0.3,5,0,12123,49.271,25.722,12673.5
4092445476,0.634765,2.223,97.626,0.509581,-0.0192855,0.898087,0.742731,-1.24446,-0.056611,0.406568,5.29519,2.79667,0.3,5,0,12123,49.271,25.722,12673.5
4092545837,0.634765,2.223,97.6156,0.499657,-0.0127276,0.902041,0.260113,-0.830264,-0.052723,0.176147,5.55325,2.68991,0.3,5,0,12123,49.271,25.722,12673.5
4092646186,0.634765,2.223,97.5929,0.482376,-0.0183702,0.90101,-0.200411,-0.439198,-0.0606422,0.116404,5.16118,2.76225,0.3,5,0,12123,49.271,25.722,12673.5
4092746551,0.634765,2.223,97.5761,0.463469,-0.0350829,0.895832,-0.642845,-0.0529742,-0.0637,0.231679,5.02887,2.65777,0.3,5,0,12123,49.271,25.722,12673.5
4092846960,0.634765,2.223,97.5727,0.445868,-0.0502696,0.890973,-1.07006,0.346444,-0.0432671,0.321645,4.85173,2.71103,-1.8,3.7,0,12123,49.271,25.722,12673.5
4092947349,0.634765,2.223,97.571,0.420707,-0.0445518,0.890788,-1.46318,0.740595,-0.0147208,0.520932,4.71151,2.31516,-1.8,3.7,0,12123,49.271,25.722,12673.5
4093047728,0.634765,2.223,97.5756,0.349176,0.103194,0.910612,-1.82924,1.11889,0.0518128,0.334179,4.30426,2.306,-1.8,3.7,0,12123,49.271,25.722,12673.5
4093148083,0.634765,2.223,97.5892,0.263999,0.211718,0.91945,-2.2446,1.24845,0.0617041,-1.65801,3.50577,1.11171,-1.8,3.7,0,12123,49.271,25.722,12673.5
4093248424,0.634765,2.223,97.6031,0.183496,0.255252,0.921874,-2.61194,1.24883,0.026969,-2.34522,2.52896,0.796356,-1.8,3.7,0,12123,49.301,25.11,12379.5
4093348749,0.634765,2.223,97.6166,0.12379,0.251617,0.920092,-2.93382,1.17281,0.0287871,-2.51719,1.75539,0.93242,-1.8,3.7,0,12123,49.301,25.11,12379.5
4093449081,0.634765,2.223,97.6443,0.0842811,0.220611,0.917043,-3.19602,1.07313,0.0316709,-2.31709,1.24787,0.555956,-1.8,3.7,0,12123,49.301,25.11,12379.5
4093549456,0.634765,2.223,97.6636,0.0578857,0.178695,0.913696,-3.43344,0.972836,0.0253305,-1.81121,0.884436,0.231513,-1.8,3.7,0,12123,49.301,25.11,12379.5
4093649796,0.634765,2.223,97.6685,0.0414015,0.142651,0.910735,-3.57226,0.909165,0.03135,-1.35431,0.641883,0.0827736,-1.8,3.7,0,12123,49.301,25.11,12379.5
4093751493,0.634765,2.223,97.6764,0.0318555,0.114117,0.908186,-3.67297,0.860172,0.019504,-0.992293,0.489667,0.0448366,-1.8,3.7,0,12123,49.301,25.11,12379.5
4093853472,0.634765,2.223,97.6872,0.0261941,0.0911849,0.906242,-3.75134,0.822354,0.00386487,-0.764538,0.37475,-0.0693393,-2.4,-1.2,0,12123,49.301,25.11,12379.5
4093953818,0.634765,2.223,97.6882,0.000645733,0.0733587,0.905833,-3.82419,0.794704,-0.00397434,-0.601427,0.557769,0.339942,-2.4,-1.2,0,12123,49.301,25.11,12379.5
4094054179,0.634765,2.223,97.6742,-0.176728,0.0684404,0.894326,-3.83186,0.738839,0.057381,-0.458717,-0.521086,-0.0733763,-2.4,-1.2,0,12123,49.301,25.11,12379.5
4094154548,0.634764,2.223,97.6659,-0.351264,0.0687107,0.888951,-3.67057,0.559689,-0.0161457,-0.397621,-2.47571,0.144068,-2.4,-1.2,0,12123,49.301,25.11,12379.5
4094254907,0.634764,2.223,97.6586,-0.444584,0.072514,0.887035,-3.38134,0.267386,-0.0618538,-0.508535,-3.72503,1.52315,-2.4,-1.2,0,12079,49.223,25.228,12418
4094355224,0.634764,2.223,97.646,-0.487876,0.075691,0.88717,-3.01362,-0.0945594,-0.0547078,-0.48404,-4.3354,2.32832,-2.4,-1.2,0,12079,49.223,25.228,12418
4094457120,0.634764,2.223,97.6427,-0.494834,0.0817001,0.886191,-2.62126,-0.474943,-0.0485682,-0.501404,-4.4041,2.61807,-2.4,-1.2,0,12079,49.223,25.228,12418
4094557444,0.634764,2.223,97.6338,-0.481614,0.0904036,0.884829,-2.23374,-0.858609,-0.0293776,-0.522089,-4.32013,2.72477,-2.4,-1.2,0,12079,49.223,25.228,12418
4094658205,0.634764,2.223,97.6194,-0.460809,0.102633,0.881499,-1.88443,-1.22795,-0.0110193,-0.650814,-4.06189,2.34573,-2.4,-1.2,0,12079,49.223,25.228,12418
4094758564,0.634764,2.223,97.6134,-0.407777,0.10153,0.883742,-1.55946,-1.58365,0.00251705,-0.652471,-3.94179,1.97017,-2.4,-1.2,0,12079,49.223,25.228,12418
4094858977,0.634764,2.223,97.6242,-0.339014,0.0945225,0.887254,-1.29525,-1.89021,0.0174102,-0.694687,-3.24228,1.39148,1,-3.6,0,12079,49.223,25.228,12418
4094959329,0.634764,2.223,97.6405,-0.283961,0.055341,0.891451,-1.09213,-2.12353,0.0358629,-0.585069,-2.35244,1.12907,1,-3.6,0,12079,49.223,25.228,12418
4095059659,0.634764,2.223,97.6533,-0.279472,-0.0898231,0.902727,-0.906958,-2.2907,0.0748325,0.168314,-2.10641,0.430151,1,-3.6,0,12079,49.223,25.228,12418
4095160104,0.634764,2.223,97.6708,-0.287225,-0.213191,0.926356,-0.6178,-2.31398,0.0412674,1.73958,-2.08779,0.265804,1,-3.6,0,12079,49.223,25.228,12418
4095260478,0.634764,2.223,97.6836,-0.297877,-0.283621,0.943477,-0.257357,-2.24129,-0.0127601,2.66452,-2.01003,1.03121,1,-3.6,0,12079,49.113,29.434,14455.9
4095360835,0.634764,2.223,97.6831,-0.304817,-0.314588,0.953387,0.172634,-2.12709,-0.0170051,3.29168,-2.10131,1.77203,1,-3.6,0,12079,49.113,29.434,14455.9
4095461157,0.634764,2.223,97.6651,-0.309321,-0.317177,0.956294,0.609888,-1.98862,-0.0232494,3.42866,-2.03702,1.76297,1,-3.6,0,12079,49.113,29.434,14455.9
4095562407,0.634764,2.223,97.643,-0.314589,-0.302515,0.95499,1.04054,-1.85154,-0.0336136,3.3856,-2.12878,1.59867,1,-3.6,0,12079,49.113,29.434,14455.9
4095671392,0.634764,2.223,97.6022,-0.321808,-0.280277,0.951837,1.45144,-1.74163,-0.0355085,3.03639,-2.14318,1.60746,1,-3.6,0,12079,49.113,29.434,14455.9
4095775144,0.634764,2.223,97.5922,-0.309933,-0.237331,0.941573,1.9338,-1.64365,-0.0336803,2.64946,-2.18267,1.7621,1,-3.6,0,12079,49.113,29.434,14455.9
4095875590,0.634764,2.223,97.593,-0.276873,-0.190985,0.930052,2.27859,-1.58561,0.0082645,2.14129,-1.86121,1.59245,3.8,4.8,0,12079,49.113,29.434,14455.9
4095977172,0.634764,2.223,97.5987,-0.217843,-0.150076,0.914974,2.54825,-1.55248,0.0237174,1.56272,-1.63958,1.16229,3.8,4.8,0,12079,49.113,29.434,14455.9
4096077527,0.634765,2.223,97.6174,0.0494811,-0.144779,0.885269,2.74238,-1.5003,0.104085,1.31547,-0.681877,0.900472,3.8,4.8,0,12079,49.113,29.434,14455.9
4096177888,0.634765,2.223,97.6469,0.265275,-0.145838,0.875127,2.66325,-1.23989,0.125966,1.38699,2.46888,0.505263,3.8,4.8,0,12079,49.113,29.434,14455.9
4096278240,0.634765,2.223,97.6672,0.3768,-0.147515,0.872965,2.45654,-0.879811,0.0665243,1.37936,3.83863,1.05784,3.8,4.8,0,12079,49.061,30.331,14880.7
4096378580,0.634765,2.223,97.6684,0.432752,-0.147288,0.873103,2.15677,-0.450043,0.0191779,1.26283,4.53819,2.05365,3.8,4.8,0,12079,49.061,30.331,14880.7
4096478902,0.634765,2.223,97.668,0.453182,-0.142775,0.875859,1.837,0.0126113,-0.0115931,1.44326,4.89,1.87519,3.8,4.8,0,12079,49.061,30.331,14880.7
4096579278,0.634765,2.223,97.6602,0.46002,-0.135522,0.881089,1.49721,0.469152,-0.0667878,1.26032,4.83552,2.35715,3.8,4.8,0,12079,49.061,30.331,14880.7
4096679641,0.634765,2.223,97.6444,0.455733,-0.136638,0.882829,1.13651,0.933212,-0.0781784,1.22486,4.93182,2.57293,3.8,4.8,0,12079,49.061,30.331,14880.7
4096780057,0.634765,2.223,97.6302,0.439829,-0.142439,0.882942,0.782616,1.40374,-0.0803795,1.28902,4.84176,2.4918,3.8,4.8,0,12079,49.061,30.331,14880.7
4096880466,0.634765,2.223,97.619,0.411667,-0.151844,0.880906,0.439732,1.85289,-0.0854752,1.16906,4.51776,2.69086,-2.2,0.6,0,12079,49.061,30.331,14880.7
4096980850,0.634765,2.223,97.6137,0.369759,-0.141101,0.883675,0.131506,2.29299,-0.0505764,1.33121,4.27876,2.17681,-2.2,0.6,0,12079,49.061,30.331,14880.7
4097081213,0.634765,2.223,97.6228,0.231643,0.0563733,0.907715,-0.158229,2.70739,0.0824697,1.14529,3.86122,2.47737,-2.2,0.6,0,12079,49.061,30.331,14880.7
4097181576,0.634765,2.223,97.6459,0.00528015,0.283459,0.899724,-0.447673,2.73862,0.130697,-2.01459,1.82243,-0.0617484,-2.2,0.6,0,12079,49.061,30.331,14880.7
4097281980,0.634765,2.223,97.6696,-0.157423,0.39695,0.872041,-0.654626,2.469,0.00761106,-3.60771,-0.484901,0.295119,-2.2,0.6,0,12035,49.028,28.436,13941.6
4097382343,0.634765,2.223,97.6953,-0.240439,0.44694,0.85282,-0.826246,2.02554,-0.0499332,-4.22559,-1.52743,1.99801,-2.2,0.6,0,12035,49.028,28.436,13941.6
4097482726,0.634765,2.223,97.7154,-0.255341,0.453865,0.850757,-0.976363,1.49311,-0.0469322,-4.38067,-1.92022,2.68229,-2.2,0.6,0,12035,49.028,28.436,13941.6
4097583082,0.634765,2.223,97.7075,-0.241732,0.445755,0.854782,-1.11962,0.962027,-0.0350916,-4.36159,-1.92115,2.60661,-2.2,0.6,0,12035,49.028,28.436,13941.6
4097683428,0.634765,2.223,97.7031,-0.220205,0.424106,0.86149,-1.26941,0.456278,-0.0291952,-4.27651,-1.75468,2.32236,-2.2,0.6,0,12035,49.028,28.436,13941.6
4097783787,0.634765,2.223,97.7064,-0.183779,0.365342,0.873654,-1.41071,-0.0151038,-0.0223739,-3.90037,-1.55697,2.06076,-2.2,0.6,0,12035,49.028,28.436,13941.6
4097884270,0.634764,2.223,97.7032,-0.148313,0.295789,0.884816,-1.52949,-0.396887,-0.0106294,-3.24481,-1.2155,1.15935,3.1,2.9,0,12035,49.028,28.436,13941.6
4097984611,0.634764,2.223,97.6942,-0.115079,0.217564,0.89451,-1.6149,-0.697572,-0.011917,-2.44693,-0.93557,0.81432,3.1,2.9,0,12035,49.028,28.436,13941.6
4098084993,0.634764,2.223,97.6825,-0.0162175,-0.0218843,0.903447,-1.68678,-0.923942,0.00605069,-1.71291,-0.592854,0.241715,3.1,2.9,0,12035,49.028,28.436,13941.6
4098185372,0.634764,2.223,97.6819,0.085198,-0.252976,0.888691,-1.65457,-0.819951,0.0043509,1.63992,0.753178,-0.101901,3.1,2.9,0,12035,49.028,28.436,13941.6
4098286702,0.634764,2.223,97.669,0.14124,-0.375393,0.870628,-1.56316,-0.502685,-0.0719647,3.26264,1.40466,0.857057,3.1,2.9,0,12035,49.028,28.436,13941.6
4098391363,0.634764,2.223,97.6407,0.173721,-0.433052,0.858418,-1.40131,0.0461058,-0.0928539,4.10607,1.82919,2.43851,3.1,2.9,0,12035,49.173,27.047,13299.8
4098491725,0.634764,2.223,97.6134,0.183299,-0.442894,0.855205,-1.25628,0.572391,-0.0859022,4.33895,2.04439,2.65086,3.1,2.9,0,12035,49.173,27.047,13299.8
4098592096,0.634764,2.223,97.5811,0.179966,-0.433062,0.85722,-1.11852,1.09531,-0.0721834,4.24828,2.04926,2.69935,3.1,2.9,0,12035,49.173,27.047,13299.8
4098692436,0.634764,2.223,97.5549,0.176383,-0.420643,0.859182,-0.984844,1.60275,-0.0539441,4.04263,1.94292,2.64029,3.1,2.9,0,12035,49.173,27.047,13299.8
4098792742,0.634764,2.223,97.5483,0.172265,-0.406458,0.861009,-0.850169,2.0963,-0.0283792,3.94487,1.86335,2.43993,3.1,2.9,0,12035,49.173,27.047,13299.8
4098893177,0.634764,2.223,97.5454,0.148042,-0.354223,0.870105,-0.719702,2.57009,0.0035786,3.68013,1.70246,2.33397,3.5,-3.8,0,12035,49.173,27.047,13299.8
4098993469,0.634764,2.223,97.5481,0.0805065,-0.283986,0.88787,-0.628302,2.9679,0.0561828,2.87091,1.6519,1.94749,3.5,-3.8,0,12035,49.173,27.047,13299.8
4099093868,0.634764,2.223,97.5614,-0.152834,-0.177296,0.918705,-0.510754,3.22967,0.15061,2.13662,0.307707,1.00848,3.5,-3.8,0,12035,49.173,27.047,13299.8
4099194173,0.634764,2.223,97.5834,-0.334472,-0.0979608,0.914241,-0.274186,3.1941,0.11757,0.881455,-2.33342,-0.126995,3.5,-3.8,0,12035,49.173,27.047,13299.8
4099294590,0.634764,2.223,97.6053,-0.431981,-0.0640756,0.905668,0.0491338,3.02896,0.04611,0.390875,-3.48816,1.27818,3.5,-3.8,0,12035,49.173,27.047,13299.8
4099394994,0.634764,2.223,97.6283,-0.470036,-0.0508554,0.90004,0.432578,2.77222,0.03892,0.0669146,-4.18036,1.82063,3.5,-3.8,0,12035,49.029,29.432,14430.2
4099495389,0.634764,2.223,97.645,-0.472884,-0.0515791,0.898656,0.829098,2.4954,0.0340314,0.0957715,-4.15521,2.10702,3.5,-3.8,0,12035,49.029,29.432,14430.2
4099596713,0.634764,2.223,97.6392,-0.459044,-0.0564924,0.898081,1.19626,2.2318,0.0282163,0.0755606,-4.02788,1.77606,3.5,-3.8,0,12035,49.029,29.432,14430.2
4099697521,0.634764,2.223,97.635,-0.447171,-0.0669291,0.901311,1.55309,1.98277,0.01295,0.163961,-3.81422,1.77472,3.5,-3.8,0,12035,49.029,29.432,14430.2
4099797950,0.634764,2.223,97.6394,-0.437644,-0.0780501,0.90501,1.90323,1.74099,0.00473078,0.183305,-3.71253,1.68197,3.5,-3.8,0,12035,49.029,29.432,14430.2
4099898380,0.634764,2.223,97.6432,-0.426516,-0.091436,0.908658,2.24669,1.52229,-0.00892384,0.38342,-3.49809,1.61385,-1.9,-2.7,0,12035,49.029,29.432,14430.2
4099998752,0.634765,2.223,97.6351,-0.399896,-0.0707856,0.906,2.59253,1.32002,-0.0150117,0.585924,-3.3017,1.72823,-1.9,-2.7,0,12035,49.029,29.432,14430.2
4100099116,0.634765,2.223,97.6348,-0.291336,0.137538,0.880055,2.9259,1.09947,0.0908982,0.164116,-2.90777,2.53374,-1.9,-2.7,0,12035,49.029,29.432,14430.2
4100199437,0.634765,2.223,97.6448,-0.192352,0.30761,0.871079,2.92863,0.75722,0.0978074,-2.82609,-1.7903,0.0434076,-1.9,-2.7,0,12035,49.029,29.432,14430.2
4100299804,0.634765,2.223,97.6505,-0.143044,0.388227,0.869652,2.77468,0.403743,-0.00935736,-3.68042,-0.783329,0.965828,-1.9,-2.7,0,12035,49.029,29.432,14430.2
4100400217,0.634765,2.223,97.6608,-0.118069,0.419052,0.869139,2.55695,-0.0114691,-0.0277643,-4.1159,-0.520651,1.82604,-1.9,-2.7,0,12035,48.992,29.607,14505.1
4100500611,0.634765,2.223,97.6659,-0.109816,0.423527,0.866881,2.306,-0.424386,-0.0288281,-4.18741,-0.365286,1.85603,-1.9,-2.7,0,12035,48.992,29.607,14505.1
4100600961,0.634765,2.223,97.6544,-0.113407,0.413511,0.863664,2.0543,-0.821256,-0.0449189,-4.13719,-0.29173,1.7059,-1.9,-2.7,0,12035,48.992,29.607,14505.1
4100701354,0.634765,2.223,97.6397,-0.126192,0.398187,0.862041,1.81797,-1.20733,-0.0478811,-3.96648,-0.390363,1.63574,-1.9,-2.7,0,12035,48.992,29.607,14505.1
4100801681,0.634765,2.223,97.6378,-0.13604,0.367328,0.86243,1.59144,-1.58792,-0.0498151,-3.90452,-0.522274,1.56143,-1.9,-2.7,0,12035,48.992,29.607,14505.1
4100902085,0.634765,2.223,97.6347,-0.136701,0.309882,0.868353,1.3991,-1.93848,-0.0249869,-3.27482,-0.508056,1.6611,0,-5,0,12035,48.992,29.607,14505.1
4101002444,0.634765,2.223,97.6299,-0.141595,0.237722,0.874398,1.25139,-2.2243,-0.00626454,-2.73429,-0.54562,0.78185,0,-5,0,12035,48.992,29.607,14505.1
4101102799,0.634765,2.223,97.6263,-0.2121,0.06192,0.879785,1.14888,-2.45159,0.0357171,-1.76126,-0.629683,0.789661,0,-5,0,12035,48.992,29.607,14505.1
4101204450,0.634765,2.223,97.633,-0.291694,-0.0752153,0.905678,1.25493,-2.56042,-0.00342384,0.156182,-1.7388,-0.507432,0,-5,0,12035,48.992,29.607,14505.1
4101308917,0.634765,2.223,97.6386,-0.355737,-0.145525,0.928522,1.55049,-2.62352,-0.0445517,1.35191,-2.3169,1.1243,0,-5,0,12035,48.992,29.607,14505.1
4101409277,0.634765,2.223,97.6247,-0.391141,-0.170004,0.941505,1.90216,-2.66827,-0.0565419,1.81513,-2.81344,1.3298,0,-5,0,12035,48.967,30.713,15039.2
4101509644,0.634765,2.223,97.6099,-0.409755,-0.164385,0.944441,2.28483,-2.70989,-0.0575346,1.88168,-2.91866,1.79493,0,-5,0,12035,48.967,30.713,15039.2
4101609999,0.634765,2.223,97.5943,-0.39391,-0.139946,0.938665,2.67481,-2.78133,-0.0351305,1.68604,-3.09595,1.76949,0,-5,0,12035,48.967,30.713,15039.2
4101710398,0.634765,2.223,97.5808,-0.349925,-0.1092,0.92894,3.00833,-2.84797,-0.011432,1.35894,-2.77041,1.31335,0,-5,0,12035,48.967,30.713,15039.2
4101810753,0.634765,2.223,97.5745,-0.303185,-0.080733,0.919933,3.28619,-2.9043,0.00111586,1.10489,-2.30223,1.00556,0,-5,0,12035,48.967,30.713,15039.2
4101911158,0.634765,2.223,97.5703,-0.261021,-0.0513007,0.912118,3.49349,-2.94245,0.0240812,0.779579,-1.71181,0.61861,-3.6,3.9,0,12035,48.967,30.713,15039.2
4102012838,0.634765,2.223,97.5806,-0.205684,-0.0217167,0.904806,3.64952,-2.98718,0.0321791,0.417796,-1.36458,0.675409,-3.6,3.9,0,12035,48.967,30.713,15039.2
4102113357,0.634765,2.223,97.5984,0.0421477,0.0597269,0.906413,3.73387,-3.00824,0.131271,0.0794756,-0.356305,1.00822,-3.6,3.9,0,12035,48.967,30.713,15039.2
4102213761,0.634765,2.223,97.6285,0.264041,0.118907,0.918961,3.51227,-2.91002,0.173864,-0.876256,2.68736,0.0532581,-3.6,3.9,0,12035,48.967,30.713,15039.2
4102314157,0.634765,2.223,97.6465,0.375318,0.15502,0.928068,3.14001,-2.73822,0.09135,-1.14192,3.91068,1.24346,-3.6,3.9,0,12035,48.967,30.713,15039.2
4102414560,0.634766,2.223,97.6625,0.433198,0.175779,0.932822,2.66007,-2.53333,0.0551628,-1.5268,4.7054,1.74687,-3.6,3.9,0,12035,48.967,30.713,15039.2
4102514960,0.634766,2.223,97.6778,0.458129,0.19177,0.935691,2.14105,-2.31831,0.0131906,-1.58266,4.83746,2.20931,-3.6,3.9,0,12035,48.967,30.713,15039.2
4102615353,0.634766,2.223,97.6764,0.466817,0.20045,0.935961,1.60093,-2.10833,-0.031596,-1.71261,4.9226,2.46853,-3.6,3.9,0,12035,48.967,30.713,15039.2
4102715743,0.634766,2.223,97.663,0.463727,0.20021,0.932906,1.04183,-1.89559,-0.0666474,-1.75013,4.98912,2.75964,-3.6,3.9,0,12035,48.967,30.713,15039.2
4102817588,0.634766,2.223,97.6442,0.450875,0.188725,0.926444,0.470321,-1.68548,-0.0683969,-1.77913,4.89136,2.72176,-3.6,3.9,0,12035,48.967,30.713,15039.2
4102918014,0.634766,2.223,97.6308,0.430133,0.17522,0.919929,-0.0847589,-1.45766,-0.0651703,-1.49446,4.84384,2.72821,0,4.3,0,12035,49.075,29.472,14463.4
4103018316,0.634766,2.223,97.6268,0.42014,0.134844,0.910421,-0.614768,-1.2291,-0.0435048,-1.43023,4.54675,2.63767,0,4.3,0,12035,49.075,29.472,14463.4
4103118688,0.634766,2.223,97.626,0.429163,1.38134e-05,0.893154,-1.12102,-0.948218,0.0148239,-0.619493,4.8478,2.39767,0,4.3,0,12035,49.075,29.472,14463.4
4103219209,0.634766,2.223,97.6346,0.413762,-0.106502,0.873863,-1.49067,-0.552802,-0.00253709,0.773379,4.71421,1.66897,0,4.3,0,12035,49.075,29.472,14463.4
4103320496,0.634765,2.223,97.6383,0.397904,-0.16587,0.859282,-1.76977,-0.105528,-0.0297175,1.67232,4.35674,1.86245,0,4.3,0,12035,49.075,29.472,14463.4
4103424974,0.634765,2.223,97.6408,0.384937,-0.184884,0.853228,-1.99718,0.383871,-0.0275372,2.12874,4.08508,2.08748,0,4.3,0,12035,49.075,29.472,14463.4
4103525339,0.634765,2.223,97.6366,0.369326,-0.173557,0.855185,-2.2076,0.859494,-0.0328184,2.14163,4.00613,1.77134,0,4.3,0,12035,49.075,29.472,14463.4
4103625691,0.634765,2.223,97.6336,0.321562,-0.141008,0.864553,-2.41177,1.30449,-0.019839,1.89445,3.66976,1.92948,0,4.3,0,12035,49.075,29.472,14463.4
4103726043,0.634765,2.223,97.6325,0.264456,-0.106131,0.875718,-2.58793,1.66565,-0.00187464,1.50431,3.19111,1.09064,0,4.3,0,12035,49.075,29.472,14463.4
4103826413,0.634765,2.223,97.6299,0.205223,-0.0737537,0.885222,-2.72275,1.9504,0.00658206,1.20125,2.47773,0.696016,0,4.3,0,12035,49.075,29.472,14463.4
4103926800,0.634765,2.223,97.6298,0.158432,-0.0447901,0.892108,-2.83358,2.16339,0.0134781,0.79997,2.01842,0.420092,-0.4,1.3,0,12035,49.075,29.472,14463.4
4104027131,0.634765,2.223,97.631,0.107705,-0.0234045,0.898062,-2.90935,2.32045,0.0161414,0.577041,1.42941,-0.0354533,-0.4,1.3,0,12035,49.068,30.171,14804.3
4104127494,0.634765,2.223,97.633,-0.11391,0.020257,0.898966,-2.96368,2.42717,0.0532066,0.331965,0.844528,0.434149,-0.4,1.3,0,12035,49.068,30.171,14804.3
4104227872,0.634765,2.223,97.6312,-0.326348,0.0597087,0.891185,-2.82208,2.30934,0.0449726,-0.230767,-2.1039,0.0713856,-0.4,1.3,0,12035,49.068,30.171,14804.3
4104328275,0.634765,2.223,97.6313,-0.410225,0.0764803,0.887953,-2.55986,2.05317,-0.0221191,-0.560256,-3.48305,1.12923,-0.4,1.3,0,12035,49.068,30.171,14804.3
4104428635,0.634765,2.223,97.6255,-0.407727,0.0810147,0.888879,-2.24123,1.72887,-0.0262327,-0.661517,-3.94122,1.90639,-0.4,1.3,0,12035,49.068,30.171,14804.3
4104529013,0.634765,2.223,97.6169,-0.348259,0.0765629,0.892698,-1.89004,1.35768,-0.0121368,-0.656118,-3.55604,1.43064,-0.4,1.3,0,12035,49.068,30.171,14804.3
4104629304,0.634765,2.223,97.6103,-0.272016,0.0685095,0.896227,-1.6604,1.1133,0.00288134,-0.526528,-2.86598,0.935843,-0.4,1.3,0,12035,49.068,30.171,14804.3
4104729653,0.634765,2.223,97.6032,-0.204962,0.0609243,0.898084,-1.48839,0.925982,0.0115409,-0.423441,-2.19573,0.441642,-0.4,1.3,0,12035,49.068,30.171,14804.3
4104830021,0.634765,2.223,97.5997,-0.147689,0.0540708,0.899377,-1.36623,0.782302,0.00903966,-0.392965,-1.43784,0.307432,-0.4,1.3,0,12035,49.068,30.171,14804.3
4104930426,0.634765,2.223,97.5926,-0.0965855,0.0462908,0.900417,-1.28993,0.677405,0.0130317,-0.358924,-0.88376,0.126057,3.4,3.1,0,12035,49.068,30.171,14804.3
4105030781,0.634765,2.223,97.5839,-0.0571018,0.0227722,0.903267,-1.23585,0.607104,0.0168446,-0.222949,-0.460879,0.269304,3.4,3.1,0,11991,49.022,30.943,15168.9
4105131113,0.634765,2.223,97.582,0.0388382,-0.144204,0.898088,-1.19476,0.607641,0.0608068,0.631454,0.18823,0.38346,3.4,3.1,0,11991,49.022,30.943,15168.9
4105231472,0.634765,2.223,97.5812,0.115072,-0.28044,0.882374,-1.11383,0.845717,0.0319268,2.48994,1.19851,0.214327,3.4,3.1,0,11991,49.022,30.943,15168.9
4105331822,0.634765,2.223,97.5762,0.162446,-0.364292,0.867404,-1.00817,1.2073,-0.0160561,3.36673,1.65509,1.32973,3.4,3.1,0,11991,49.022,30.943,15168.9
4105432203,0.634765,2.223,97.5627,0.185501,-0.39799,0.859215,-0.887432,1.66383,-0.0194908,3.80628,1.90892,2.23511,3.4,3.1,0,11991,49.022,30.943,15168.9
4105532531,0.634765,2.223,97.5466,0.196072,-0.407309,0.855933,-0.761235,2.14695,-0.0177365,4.00015,1.98702,2.27969,3.4,3.1,0,11991,49.022,30.943,15168.9
4105632868,0.634765,2.223,97.5246,0.193864,-0.399313,0.856642,-0.64544,2.6391,-0.0136238,3.98709,2.06718,2.24728,3.4,3.1,0,11991,49.022,30.943,15168.9
4105733212,0.634765,2.223,97.5087,0.169467,-0.349394,0.865438,-0.530054,3.1144,0.0100435,3.80512,1.86705,2.1971,3.4,3.1,0,11991,49.022,30.943,15168.9
4105833697,0.634765,2.223,97.4988,0.13991,-0.289983,0.874557,-0.445474,3.51301,0.046582,3.1203,1.68915,1.6145,3.4,3.1,0,11991,49.022,30.943,15168.9
4105934164,0.634765,2.223,97.4961,0.10217,-0.220839,0.883823,-0.388348,3.83005,0.051494,2.44549,1.40679,0.912781,1,4.3,0,11991,49.022,30.943,15168.9
4106034438,0.634765,2.223,97.5109,0.0813931,-0.149737,0.890144,-0.338758,4.06398,0.0769885,1.82316,0.950574,1.02112,1,4.3,0,11991,48.944,30.447,14902
4106134749,0.634765,2.223,97.528,0.136046,0.0800982,0.898218,-0.344334,4.22318,0.167384,0.538724,1.03858,0.314074,1,4.3,0,11991,48.944,30.447,14902
4106235182,0.634765,2.223,97.5543,0.194723,0.231967,0.919313,-0.574583,4.19535,0.0999747,-2.07092,1.71883,-0.332726,1,4.3,0,11991,48.944,30.447,14902
4106335548,0.634765,2.223,97.5792,0.220008,0.297268,0.934395,-0.923719,4.10609,0.0387877,-2.91311,2.07017,1.15206,1,4.3,0,11991,48.944,30.447,14902
4106435854,0.634765,2.223,97.5983,0.205899,0.2969,0.936422,-1.31478,3.98441,0.0419774,-3.26035,2.10785,1.20722,1,4.3,0,11991,48.944,30.447,14902
4106536272,0.634765,2.223,97.6181,0.173487,0.257721,0.92982,-1.66255,3.86731,0.0362803,-3.01082,1.86814,0.872727,1,4.3,0,11991,48.944,30.447,14902
4106637531,0.634765,2.223,97.6304,0.138858,0.20408,0.921989,-1.94573,3.76528,0.0347593,-2.4256,1.47261,0.651266,1,4.3,0,11991,48.944,30.447,14902
4106738540,0.634765,2.223,97.6454,0.108367,0.152422,0.9147,-2.16475,3.68682,0.0354413,-1.83598,1.13939,0.317647,1,4.3,0,11991,48.944,30.447,14902
4106845515,0.634765,2.223,97.6624,0.0863797,0.111118,0.910066,-2.32858,3.6253,0.0379872,-1.36018,0.858025,0.0245119,1,4.3,0,11991,48.944,30.447,14902
4106950153,0.634765,2.223,97.6761,0.0699716,0.0763682,0.906624,-2.46676,3.57284,0.0384242,-0.902501,0.543096,0.0547834,5,-3.8,0,11991,48.944,30.447,14902
4107050532,0.634765,2.223,97.687,0.0413802,0.0433993,0.904233,-2.55694,3.54614,0.0257453,-0.598404,0.500587,0.0686796,5,-3.8,0,11991,48.99,29.122,14266.9
4107150904,0.634764,2.223,97.6822,-0.135179,-0.0574638,0.90506,-2.59032,3.51565,0.0513149,-0.0530109,-0.291394,-0.0159734,5,-3.8,0,11991,48.99,29.122,14266.9
4107251239,0.634764,2.223,97.6723,-0.299051,-0.134734,0.920203,-2.35684,3.43962,0.00756305,1.07457,-2.54076,0.010956,5,-3.8,0,11991,48.99,29.122,14266.9
4107351569,0.634764,2.223,97.6555,-0.39314,-0.179904,0.934223,-1.98764,3.33024,-0.0502475,1.54715,-3.40279,1.58674,5,-3.8,0,11991,48.99,29.122,14266.9
4107451859,0.634764,2.223,97.6312,-0.435614,-0.196463,0.939857,-1.5086,3.20123,-0.0547676,1.83609,-3.98842,2.33042,5,-3.8,0,11991,48.99,29.122,14266.9
4107552287,0.634764,2.223,97.6046,-0.444182,-0.197664,0.938821,-0.994271,3.06293,-0.0533439,1.90017,-4.10492,2.70112,5,-3.8,0,11991,48.99,29.122,14266.9
4107652668,0.634764,2.223,97.5717,-0.438099,-0.192299,0.935438,-0.484341,2.91776,-0.0373675,1.8133,-4.14662,2.5397,5,-3.8,0,11991,48.99,29.122,14266.9
4107752965,0.634764,2.223,97.5518,-0.427006,-0.187166,0.932606,0.00983644,2.77908,-0.0172036,1.75271,-3.93554,2.53112,5,-3.8,0,11991,48.99,29.122,14266.9
4107853353,0.634764,2.223,97.5473,-0.413241,-0.183519,0.930826,0.48724,2.64709,-0.00387639,1.63541,-3.79774,2.37407,5,-3.8,0,11991,48.99,29.122,14266.9
4107953771,0.634764,2.223,97.5358,-0.399152,-0.180229,0.929153,0.946059,2.53054,0.0120814,1.61322,-3.52899,2.32785,0.8,-1.9,0,11991,48.99,29.122,14266.9
4108054131,0.634764,2.223,97.5277,-0.377853,-0.152216,0.92268,1.37863,2.42159,0.0238184,1.62916,-3.32556,2.0891,0.8,-1.9,0,11946,48.927,30.144,14748.6
4108154492,0.634764,2.223,97.5269,-0.32826,0.0559978,0.892982,1.7875,2.27559,0.154328,0.809709,-3.14433,2.1757,0.8,-1.9,0,11946,48.927,30.144,14748.6
4108254852,0.634764,2.223,97.5422,-0.303121,0.205154,0.872665,1.92411,1.96652,0.117076,-1.78662,-2.74203,0.221491,0.8,-1.9,0,11946,48.927,30.144,14748.6
4108355233,0.634765,2.223,97.5612,-0.298896,0.278365,0.857004,1.95996,1.60364,0.0273914,-2.70971,-2.30717,0.936241,0.8,-1.9,0,11946,48.927,30.144,14748.6
4108455517,0.634765,2.223,97.5753,-0.277501,0.287231,0.853671,1.96991,1.1744,0.0151703,-3.11674,-2.29628,1.52245,0.8,-1.9,0,11946,48.927,30.144,14748.6
4108557407,0.634765,2.223,97.5933,-0.241465,0.257342,0.858482,1.95436,0.778293,0.0307366,-2.98147,-1.95004,1.3027,0.8,-1.9,0,11946,48.927,30.144,14748.6
4108657744,0.634765,2.223,97.6286,-0.20325,0.20921,0.868084,1.93922,0.456063,0.0433589,-2.47135,-1.6421,0.796156,0.8,-1.9,0,11946,48.927,30.144,14748.6
4108758121,0.634765,2.223,97.6575,-0.173746,0.166069,0.876166,1.92057,0.208212,0.0313312,-2.03335,-1.26202,0.26519,0.8,-1.9,0,11946,48.927,30.144,14748.6
4108858486,0.634765,2.223,97.6715,-0.150911,0.126008,0.883108,1.90731,0.00858366,0.0271579,-1.49076,-0.972085,0.399905,0.8,-1.9,0,11946,48.927,30.144,14748.6
4108958944,0.634765,2.223,97.6812,-0.135128,0.0892768,0.888908,1.8954,-0.150827,0.0106518,-1.17112,-0.818932,0.0664932,4.9,-4.9,0,11946,48.927,30.144,14748.6
4109059300,0.634765,2.223,97.683,-0.131541,0.0308835,0.891495,1.88833,-0.276913,0.00527678,-0.880182,-0.593241,0.456767,4.9,-4.9,0,11946,49.016,28.084,13765.7
4109159673,0.634765,2.223,97.6761,-0.173575,-0.115892,0.902484,1.9214,-0.344285,0.00817945,0.186509,-0.818012,-0.2783,4.9,-4.9,0,11946,49.016,28.084,13765.7
4109260065,0.634765,2.223,97.6596,-0.214419,-0.228107,0.922788,2.09406,-0.307775,-0.0461007,1.62509,-1.17843,0.233765,4.9,-4.9,0,11946,49.016,28.084,13765.7
4109360421,0.634765,2.223,97.6404,-0.242127,-0.292334,0.938778,2.36202,-0.203074,-0.0649746,2.54341,-1.39795,0.98861,4.9,-4.9,0,11946,49.016,28.084,13765.7
4109460773,0.634765,2.223,97.6241,-0.259257,-0.31538,0.948156,2.6891,-0.0640831,-0.0585493,2.97591,-1.65072,1.4942,4.9,-4.9,0,11946,49.016,28.084,13765.7
4109561127,0.634765,2.223,97.606,-0.268704,-0.316819,0.952183,3.04764,0.0862522,-0.0517892,3.00794,-1.66892,1.94868,4.9,-4.9,0,11946,49.016,28.084,13765.7
4109661483,0.634765,2.223,97.5791,-0.276718,-0.306876,0.951712,3.40169,0.234729,-0.038078,2.93954,-1.65617,1.91084,4.9,-4.9,0,11946,49.016,28.084,13765.7
4109761844,0.634765,2.223,97.556,-0.283644,-0.294353,0.950228,3.75439,0.360272,-0.02527,2.83235,-1.79171,1.65785,4.9,-4.9,0,11946,49.016,28.084,13765.7
4109862187,0.634765,2.223,97.5493,-0.291296,-0.281598,0.947787,4.09474,0.475582,-0.0116083,2.6167,-1.75641,1.57255,4.9,-4.9,0,11946,49.016,28.084,13765.7
4109962602,0.634765,2.223,97.5483,-0.298969,-0.26594,0.944126,4.42846,0.575935,0.0127187,2.43161,-1.87924,1.3671,-1.5,-2.6,0,11946,49.016,28.084,13765.7
4110062962,0.634765,2.223,97.5517,-0.296658,-0.236274,0.93984,4.74995,0.640193,0.0200586,2.21606,-2.00184,1.20784,-1.5,-2.6,0,11946,49.049,29.133,14289.4
4110163318,0.634765,2.223,97.5615,-0.194331,-0.021789,0.916087,5.07715,0.685749,0.0840365,1.78478,-1.84279,2.05929,-1.5,-2.6,0,11946,49.049,29.133,14289.4
4110263682,0.634765,2.223,97.5871,-0.0541495,0.240174,0.900978,5.08777,0.566275,0.198116,-1.43386,-0.521319,0.623076,-1.5,-2.6,0,11946,49.049,29.133,14289.4
4110364041,0.634766,2.223,97.6232,0.0223936,0.369356,0.904244,4.8228,0.347068,0.162277,-3.54246,0.725754,0.491947,-1.5,-2.6,0,11946,49.049,29.133,14289.4
4110464329,0.634766,2.223,97.6398,0.0523296,0.428867,0.906525,4.4721,0.0890236,0.106648,-4.04091,1.08588,1.73922,-1.5,-2.6,0,11946,49.049,29.133,14289.4
4110564670,0.634766,2.223,97.6589,0.0654169,0.45567,0.90657,4.07196,-0.19865,0.0808625,-4.49455,1.26497,1.75831,-1.5,-2.6,0,11946,49.049,29.133,14289.4
4110665004,0.634766,2.223,97.693,0.0615442,0.465755,0.904748,3.66816,-0.474864,0.0277545,-4.5014,1.2783,1.63647,-1.5,-2.6,0,11946,49.049,29.133,14289.4
4110765351,0.634766,2.223,97.7212,0.0506802,0.472761,0.899546,3.25356,-0.766553,0.0045947,-4.44206,1.24562,2.0432,-1.5,-2.6,0,11946,49.049,29.133,14289.4
4110865715,0.634766,2.223,97.722,0.0323557,0.469277,0.893823,2.84819,-1.06532,-0.0469322,-4.63176,1.17023,1.53516,-1.5,-2.6,0,11946,49.049,29.133,14289.4
4110966124,0.634766,2.223,97.7093,0.00976011,0.446446,0.887607,2.46694,-1.36549,-0.0460807,-4.41258,0.968965,1.8128,3.1,-2.8,0,11946,49.049,29.133,14289.4
4111067205,0.634766,2.223,97.7021,-0.00462876,0.377656,0.88156,2.08974,-1.66409,-0.0632921,-4.03177,0.910884,1.86641,3.1,-2.8,0,11946,49.049,29.133,14289.4
4111172764,0.634766,2.223,97.692,-0.00158691,0.124682,0.879158,1.70664,-1.96613,0.0102869,-3.04755,0.793307,0.50888,3.1,-2.8,0,11946,48.971,29.761,14574.3
4111273167,0.634766,2.223,97.6891,-0.0209001,-0.175992,0.887742,1.64237,-1.92514,-0.00278502,0.645966,0.557562,-0.469863,3.1,-2.8,0,11946,48.971,29.761,14574.3
4111373518,0.634766,2.223,97.6818,-0.0481454,-0.353354,0.904224,1.75607,-1.68814,-0.108558,2.94555,0.411014,0.30733,3.1,-2.8,0,11946,48.971,29.761,14574.3
4111473834,0.634766,2.223,97.6579,-0.0791874,-0.439987,0.91993,2.01982,-1.32039,-0.126767,4.38546,0.138991,2.24536,3.1,-2.8,0,11946,48.971,29.761,14574.3
4111574198,0.634766,2.223,97.6193,-0.110374,-0.464467,0.932701,2.3205,-0.942443,-0.127116,4.27832,0.0116484,2.6888,3.1,-2.8,0,11946,48.971,29.761,14574.3
4111674539,0.634766,2.223,97.5801,-0.130883,-0.445857,0.937289,2.65342,-0.574356,-0.0998044,4.37959,-0.260511,2.62456,3.1,-2.8,0,11946,48.971,29.761,14574.3
4111774900,0.634766,2.223,97.5519,-0.136561,-0.37969,0.932742,2.98696,-0.23822,-0.064324,3.86461,-0.311589,2.64197,3.1,-2.8,0,11946,48.971,29.761,14574.3
4111875249,0.634766,2.223,97.5327,-0.135425,-0.305712,0.924948,3.25703,0.0189923,-0.0187408,3.23348,-0.419203,1.49312,3.1,-2.8,0,11946,48.971,29.761,14574.3
4111975663,0.634766,2.223,97.5369,-0.132068,-0.237272,0.917207,3.4676,0.201472,0.0140638,2.41186,-0.4678,1.02054,-2.9,-4.2,0,11946,48.971,29.761,14574.3
4112075997,0.634766,2.223,97.5468,-0.128084,-0.157168,0.910794,3.6479,0.34026,0.0251389,1.82675,-0.437225,1.23334,-2.9,-4.2,0,11946,48.971,29.761,14574.3
4112176397,0.634766,2.223,97.5771,-0.126267,0.0954361,0.90117,3.78969,0.416622,0.140224,0.724403,-0.453344,0.687879,-2.9,-4.2,0,11946,49.145,27.586,13557.1
4112276765,0.634766,2.223,97.6143,-0.135037,0.285745,0.883321,3.71222,0.235339,0.107067,-2.47175,-0.590619,-0.423722,-2.9,-4.2,0,11946,49.145,27.586,13557.1
4112377137,0.634766,2.223,97.6407,-0.147544,0.38117,0.871251,3.54963,-0.0627742,0.0552969,-3.47934,-0.525277,1.11221,-2.9,-4.2,0,11946,49.145,27.586,13557.1
4112477505,0.634767,2.223,97.6681,-0.158864,0.420201,0.864244,3.35295,-0.434205,0.0301572,-4.01843,-0.614389,1.7321,-2.9,-4.2,0,11946,49.145,27.586,13557.1
4112577849,0.634767,2.223,97.7065,-0.161831,0.429571,0.861203,3.15348,-0.82032,0.0139579,-4.14996,-0.709055,1.55272,-2.9,-4.2,0,11946,49.145,27.586,13557.1
4112678173,0.634767,2.223,97.7355,-0.161247,0.423416,0.861076,2.94569,-1.22024,-0.000752237,-4.19738,-0.658515,1.76228,-2.9,-4.2,0,11946,49.145,27.586,13557.1
4112778606,0.634767,2.223,97.7291,-0.160229,0.411709,0.861848,2.74073,-1.61317,-0.00337675,-3.97568,-0.618223,1.72027,-2.9,-4.2,0,11946,49.145,27.586,13557.1
4112879044,0.634767,2.223,97.7192,-0.167103,0.393394,0.86223,2.53851,-1.99276,-0.0278865,-3.89911,-0.611632,1.57666,-2.9,-4.2,0,11946,49.145,27.586,13557.1
4112979432,0.634767,2.223,97.7188,-0.177048,0.376369,0.863482,2.36413,-2.36344,-0.0391498,-3.68736,-0.783871,1.26023,-0.5,-4.8,0,11946,49.145,27.586,13557.1
4113079825,0.634767,2.223,97.7109,-0.198573,0.329337,0.861976,2.19584,-2.72997,-0.0674236,-3.61246,-0.826529,1.46361,-0.5,-4.8,0,11946,49.145,27.586,13557.1
4113180248,0.634767,2.223,97.6905,-0.249158,0.135752,0.868548,2.07541,-3.0875,-0.0141116,-2.69064,-1.10069,1.51237,-0.5,-4.8,0,11901,49.18,25.446,12514.3
4113280605,0.634767,2.223,97.6861,-0.278447,-0.0185861,0.894585,2.16459,-3.25769,-0.0261499,-0.448109,-1.7688,-0.0990319,-0.5,-4.8,0,11901,49.18,25.446,12514.3
4113381029,0.634767,2.223,97.6761,-0.293048,-0.0939527,0.913977,2.34324,-3.33498,-0.0663847,0.764094,-1.90123,0.277571,-0.5,-4.8,0,11901,49.18,25.446,12514.3
4113481416,0.634767,2.223,97.6629,-0.284499,-0.11669,0.920646,2.58198,-3.38313,-0.0668366,1.22813,-1.93473,1.01815,-0.5,-4.8,0,11901,49.18,25.446,12514.3
4113581778,0.634767,2.223,97.6455,-0.257538,-0.109696,0.920394,2.81995,-3.40317,-0.044154,1.36048,-1.67065,0.971879,-0.5,-4.8,0,11901,49.18,25.446,12514.3
4113682151,0.634767,2.223,97.6347,-0.229217,-0.0905172,0.91692,3.00531,-3.40678,-0.0290941,1.13215,-1.26542,0.62994,-0.5,-4.8,0,11901,49.18,25.446,12514.3
4113782580,0.634767,2.223,97.6223,-0.205077,-0.0668115,0.91261,3.16194,-3.39934,-0.0319303,1.0012,-1.14997,0.114628,-0.5,-4.8,0,11901,49.18,25.446,12514.3
4113882899,0.634767,2.223,97.6123,-0.182788,-0.0464054,0.908588,3.29067,-3.39511,-0.023448,0.727645,-0.806329,0.606994,-0.5,-4.8,0,11901,49.18,25.446,12514.3
4113983378,0.634767,2.223,97.6227,-0.165131,-0.0282739,0.906219,3.39152,-3.3732,-0.00673351,0.598747,-0.577259,0.435542,0.3,-2.1,0,11901,49.18,25.446,12514.3
4114083759,0.634767,2.223,97.632,-0.140035,-0.0166933,0.903073,3.46522,-3.36157,0.00567615,0.340131,-0.38434,0.227422,0.3,-2.1,0,11901,49.18,25.446,12514.3
4114184122,0.634767,2.223,97.6326,0.0657186,-0.0631405,0.895715,3.52553,-3.35165,0.0714275,0.289111,-0.0765938,0.911194,0.3,-2.1,0,11901,48.99,27.894,13665.3
4114284477,0.634767,2.223,97.6443,0.251472,-0.100118,0.884196,3.40644,-3.08649,0.164203,1.14519,2.79315,0.670625,0.3,-2.1,0,11901,48.99,27.894,13665.3
4114384825,0.634767,2.223,97.665,0.299288,-0.0926939,0.883959,3.20269,-2.7443,0.065529,1.17283,3.80513,0.264442,0.3,-2.1,0,11901,48.99,27.894,13665.3
4114485223,0.634767,2.223,97.6754,0.281376,-0.0782445,0.888271,2.97046,-2.40329,0.0434769,0.983608,3.74674,1.179,0.3,-2.1,0,11901,48.99,27.894,13665.3
