timestamp,lat,log,alt,roll,pitch,yaw,vel_x,vel_y,vel_z,acc_x,acc_y,acc_z,act_vx,act_vy,act_yr,capacity,vol,cur,power
683445595,0.63477,2.223,114.614,-0.0474962,0.0534952,0.944294,0.0070623,0.0227931,0.00231524,0.0282898,0.0526834,-0.0210093,0,-3.2,0,11895,49.176,23.787,11697.5
683546111,0.63477,2.223,114.61,-0.0482247,0.0516498,0.944516,-0.00470021,0.0166381,0.000711162,-0.0926825,0.0430458,0.103195,0,-3.2,0,11895,49.176,23.787,11697.5
683646518,0.63477,2.223,114.609,-0.0547108,0.0486927,0.945737,-0.00973603,0.00816738,0.00499003,-0.0632256,0.0333939,0.10355,0,-3.2,0,11895,49.176,23.787,11697.5
683746879,0.63477,2.223,114.609,-0.154862,0.0398599,0.941787,-0.00721613,-0.000488099,0.0405886,0.0113672,-0.321058,-0.110861,0,-3.2,0,11895,49.176,23.787,11697.5
683847227,0.63477,2.223,114.605,-0.298232,0.0315839,0.939934,0.12031,-0.0858144,-0.0101382,0.109974,-1.76143,-0.0370795,0,-3.2,0,11895,49.151,24.089,11840
683948955,0.63477,2.223,114.593,-0.384152,0.0295655,0.939887,0.360558,-0.242104,-0.0425594,0.201294,-2.74634,0.987151,0,-3.2,0,11895,49.151,24.089,11840
684050882,0.63477,2.223,114.584,-0.434016,0.0322355,0.938861,0.674395,-0.458643,-0.0361073,0.123374,-3.35928,1.75032,0,-3.2,0,11895,49.151,24.089,11840
684151332,0.63477,2.223,114.576,-0.446394,0.0368488,0.937451,1.01449,-0.695062,-0.0231903,0.160302,-3.50961,2.16666,0,-3.2,0,11895,49.151,24.089,11840
684252898,0.63477,2.223,114.558,-0.432497,0.0438735,0.935898,1.35214,-0.932104,-0.0122233,0.15371,-3.57859,1.96115,0,-3.2,0,11895,49.151,24.089,11840
684353208,0.63477,2.223,114.544,-0.384676,0.0483667,0.935582,1.66419,-1.16577,0.00653112,0.0486801,-3.25907,1.8452,0,-3.2,0,11895,49.151,24.089,11840
684453593,0.63477,2.223,114.553,-0.332354,0.0514959,0.935949,1.92258,-1.36566,0.0373385,-0.00447346,-2.88438,1.13408,0,-3.2,0,11895,49.151,24.089,11840
684553914,0.63477,2.223,114.565,-0.283,0.0546117,0.935853,2.12606,-1.53083,0.0486499,-0.0455812,-2.35973,0.591463,0,-3.2,0,11895,49.151,24.089,11840
684654203,0.63477,2.223,114.571,-0.240179,0.0547471,0.936489,2.27976,-1.67014,0.0517699,-0.160767,-1.78255,0.507322,0,-3.2,0,11895,49.151,24.089,11840
684754573,0.63477,2.223,114.576,-0.205922,0.0531757,0.937786,2.39766,-1.77947,0.0595515,-0.179047,-1.25267,0.448338,0,-3.2,0,11895,49.151,24.089,11840
684854916,0.63477,2.223,114.591,-0.179482,0.0504122,0.938837,2.49,-1.85911,0.0517324,-0.0638388,-1.00102,0.0535153,0,-3.2,0,11895,49.147,24.089,11839
684955271,0.63477,2.223,114.604,-0.15452,0.0451869,0.940677,2.55899,-1.92541,0.0524957,-0.103966,-0.738901,0.121958,0,-3.2,0,11895,49.147,24.089,11839
685055628,0.63477,2.223,114.616,-0.134566,0.0402353,0.942383,2.60836,-1.97174,0.0566813,-0.0457289,-0.545313,0.0135107,0,-3.2,0,11895,49.147,24.089,11839
685155978,0.63477,2.223,114.624,-0.120906,0.0377455,0.942679,2.6428,-2.00394,0.0521904,-0.0248319,-0.42222,-0.0443757,0,-3.2,0,11895,49.147,24.089,11839
685256379,0.63477,2.223,114.619,-0.113541,0.0358556,0.94296,2.67208,-2.01859,0.0452514,0.113158,-0.233223,-0.0141822,0,-3.2,0,11895,49.147,24.089,11839
685356742,0.63477,2.223,114.613,-0.105173,0.0379912,0.942957,2.7102,-2.01259,0.0407461,0.257433,-0.22005,0.158706,0,-3.2,0,11895,49.147,24.089,11839
685457118,0.63477,2.223,114.611,-0.10283,0.0390863,0.943171,2.72024,-2.00971,0.0311409,0.150307,-0.0729231,-0.0816331,0,-3,0,11895,49.147,24.089,11839
685558096,0.63477,2.223,114.608,-0.0995418,0.0402987,0.943502,2.73226,-1.99804,0.0148895,0.205807,-0.0869681,-0.0967354,0,-3,0,11895,49.147,24.089,11839
685659330,0.63477,2.223,114.604,-0.0772706,0.0377431,0.944493,2.73886,-1.98026,0.00369224,0.216591,0.0959334,0.0696088,0,-3,0,11895,49.147,24.089,11839
685759696,0.63477,2.223,114.601,-0.0779169,0.0401448,0.944247,2.72116,-1.95168,0.00765022,0.123002,0.144985,-0.406765,0,-3,0,11895,49.147,24.089,11839
685860111,0.63477,2.223,114.597,-0.0775573,0.0422338,0.943966,2.70452,-1.92942,-0.00571243,0.110472,0.183327,0.0364136,0,-3,0,11851,49.149,25.027,12300.5
685960592,0.634771,2.223,114.592,-0.0784223,0.0445488,0.943174,2.694,-1.91498,-0.000590511,0.0732363,0.0874705,0.00227374,0,-3,0,11851,49.149,25.027,12300.5
686067331,0.634771,2.223,114.589,-0.0776663,0.0474719,0.943065,2.67154,-1.89842,-0.00491791,0.00566307,0.0975132,0.10592,0,-3,0,11851,49.149,25.027,12300.5
686167696,0.634771,2.223,114.587,-0.0785658,0.047723,0.943099,2.66378,-1.89114,0.00909989,0.00322412,0.0498788,0.0458474,0,-3,0,11851,49.149,25.027,12300.5
686268085,0.634771,2.223,114.588,-0.0818375,0.0464592,0.943281,2.64911,-1.88055,0.00528749,0.0421494,0.12829,-0.00417194,0,-3,0,11851,49.149,25.027,12300.5
686368422,0.634771,2.223,114.59,-0.0860572,0.0481361,0.943282,2.64042,-1.86541,0.00773229,0.0858773,0.114398,-0.118862,0,-3,0,11851,49.149,25.027,12300.5
686468783,0.634771,2.223,114.59,-0.091078,0.0484709,0.943673,2.63752,-1.84914,0.0201642,0.153399,0.0606411,0.0517531,0,-3,0,11851,49.149,25.027,12300.5
686569202,0.634771,2.223,114.593,-0.096606,0.0493891,0.943458,2.63608,-1.84117,0.01142,0.0739383,-0.0783095,-0.0051245,0,-3,0,11851,49.149,25.027,12300.5
686671084,0.634771,2.223,114.6,-0.0978864,0.0518003,0.943618,2.63272,-1.84204,0.00258155,0.0143496,-0.0790201,-0.0404299,0,-3,0,11851,49.149,25.027,12300.5
686771449,0.634771,2.223,114.604,-0.0999838,0.0503313,0.943731,2.62992,-1.8488,0.00529464,-0.0487818,-0.100935,-0.0656359,0,-3,0,11851,49.149,25.027,12300.5
686871802,0.634771,2.223,114.611,-0.100532,0.0474106,0.94356,2.63441,-1.8509,-0.00321489,0.0631556,-0.103056,-0.0584205,0,-3,0,11851,49.04,26.081,12790.1
686972176,0.634771,2.223,114.621,-0.100709,0.0474469,0.943282,2.64105,-1.85905,0.000192821,-0.00565397,-0.185882,-0.0610143,0,-3,0,11851,49.04,26.081,12790.1
687072513,0.634771,2.223,114.629,-0.0949819,0.0478093,0.942711,2.64966,-1.87066,0.00601763,-0.0172258,-0.152774,0.177866,0,-3,0,11851,49.04,26.081,12790.1
687172840,0.634771,2.223,114.635,-0.0886405,0.0500516,0.942466,2.65115,-1.87513,0.0172363,-0.060029,-0.0199765,-0.0767772,0,-3,0,11851,49.04,26.081,12790.1
687273199,0.634771,2.223,114.64,-0.0912847,0.0559555,0.941624,2.6365,-1.876,0.00549757,-0.112186,0.0227955,-0.280054,0,-3,0,11851,49.04,26.081,12790.1
687373577,0.634771,2.223,114.641,-0.0812518,0.0544384,0.941668,2.62875,-1.89506,-0.00733151,-0.201155,0.0168857,0.212407,0,-3,0,11851,49.04,26.081,12790.1
687473948,0.634771,2.223,114.639,-0.0744822,0.0535542,0.941782,2.60986,-1.9177,0.00550935,-0.257462,0.0260392,0.112883,0,-5,0,11851,49.04,26.081,12790.1
687574241,0.634771,2.223,114.636,-0.0826804,0.0517487,0.942975,2.58771,-1.93263,0.0144666,-0.220184,0.0552622,0.140484,0,-5,0,11851,49.04,26.081,12790.1
687674589,0.634771,2.223,114.635,-0.182862,0.0506941,0.937719,2.5742,-1.94837,0.047985,-0.132827,-0.241313,-0.372641,0,-5,0,11851,49.04,26.081,12790.1
687774947,0.634771,2.223,114.638,-0.288075,0.0445124,0.935891,2.65322,-2.03032,-0.0178474,-0.166216,-1.39653,-0.153425,0,-5,0,11851,49.04,26.081,12790.1
687875307,0.634771,2.223,114.642,-0.351371,0.0356372,0.936277,2.81264,-2.17836,-0.040685,-0.181984,-2.10083,0.661699,0,-5,0,11851,49.04,26.081,12790.1
687975654,0.634771,2.223,114.642,-0.365412,0.0319173,0.938031,3.02626,-2.33298,-0.0401437,0.0410316,-2.56296,0.692865,0,-5,0,11851,49.04,26.081,12790.1
688076049,0.634771,2.223,114.634,-0.351468,0.0300666,0.939863,3.24271,-2.48555,-0.0362599,0.0930427,-2.39569,1.07095,0,-5,0,11851,49.04,26.081,12790.1
688176391,0.634771,2.223,114.631,-0.323368,0.0296007,0.939886,3.43369,-2.62097,-0.0110336,0.144027,-2.02836,1.06543,0,-5,0,11851,49.04,26.081,12790.1
688278370,0.634771,2.223,114.627,-0.291381,0.0300548,0.939967,3.60913,-2.73937,-0.0075614,0.200173,-1.84466,0.952502,0,-5,0,11851,49.04,26.081,12790.1
688385230,0.634771,2.223,114.621,-0.258721,0.0319139,0.940482,3.7775,-2.84625,0.0040997,0.170771,-1.42089,0.581491,0,-5,0,11851,49.216,24.276,11947.7
688485568,0.634772,2.223,114.627,-0.230189,0.0298014,0.941538,3.88812,-2.91434,0.0130135,0.156276,-1.10525,0.397587,0,-5,0,11851,49.216,24.276,11947.7
688585983,0.634772,2.223,114.634,-0.207351,0.0322706,0.941191,3.98487,-2.96342,0.0266243,0.182943,-0.930346,0.362752,0,-5,0,11851,49.216,24.276,11947.7
688686346,0.634772,2.223,114.641,-0.188639,0.0343994,0.940971,4.05864,-3.00629,0.0247672,0.152033,-0.783319,0.10437,0,-5,0,11851,49.216,24.276,11947.7
688787925,0.634772,2.223,114.65,-0.174245,0.037604,0.940301,4.12239,-3.03921,0.0241198,0.1187,-0.552783,0.278391,0,-5,0,11851,49.216,24.276,11947.7
688889414,0.634772,2.223,114.659,-0.15793,0.0371515,0.94047,4.16743,-3.07502,0.0135947,-0.0302145,-0.513369,-0.19829,0,-5,0,11851,49.216,24.276,11947.7
688989781,0.634772,2.223,114.66,-0.143974,0.0359546,0.940764,4.20841,-3.09432,0.011433,0.120892,-0.366561,-0.112388,0,-5,0,11851,49.216,24.276,11947.7
689090155,0.634772,2.223,114.662,-0.131628,0.0353333,0.940382,4.23494,-3.10978,0.0108585,0.0708403,-0.242675,-0.0177221,0,-5,0,11851,49.216,24.276,11947.7
689190528,0.634772,2.223,114.658,-0.126004,0.0382331,0.940295,4.25478,-3.11509,-0.00549858,0.0521777,-0.179899,-0.0622706,0,-5,0,11851,49.216,24.276,11947.7
689290897,0.634772,2.223,114.652,-0.123945,0.0402884,0.939245,4.26374,-3.12989,-0.0124778,-0.0778295,-0.150987,-0.0215486,0,-5,0,11851,49.216,24.276,11947.7
689391265,0.634772,2.223,114.652,-0.123545,0.0363651,0.940126,4.27178,-3.1367,-0.0327118,-0.0189314,-0.124014,-0.0883836,0,-5,0,11851,49.202,22.962,11297.8
689491689,0.634772,2.223,114.649,-0.121588,0.0333622,0.941672,4.29649,-3.12513,-0.0351384,0.233009,-0.162202,-0.0738617,0,-1.6,0,11851,49.202,22.962,11297.8
689592092,0.634772,2.223,114.64,-0.0877983,0.0326588,0.941384,4.31905,-3.1214,-0.0327859,0.174978,-0.179949,0.760146,0,-1.6,0,11851,49.202,22.962,11297.8
689692462,0.634772,2.223,114.64,0.142362,0.0205896,0.950851,4.30404,-3.07082,0.0784044,0.372233,0.692664,1.16344,0,-1.6,0,11851,49.202,22.962,11297.8
689792830,0.634772,2.223,114.649,0.306473,0.0188216,0.951172,4.06855,-2.85247,0.119781,0.345652,3.29015,0.330773,0,-1.6,0,11851,49.202,22.962,11297.8
689893197,0.634773,2.223,114.655,0.360411,0.0349616,0.953379,3.754,-2.59156,0.0337802,0.298671,4.00585,1.01912,0,-1.6,0,11851,49.202,22.962,11297.8
689993563,0.634773,2.223,114.665,0.34612,0.0425315,0.953533,3.3751,-2.31183,0.0395969,0.103214,4.15587,1.90765,0,-1.6,0,11851,49.202,22.962,11297.8
690093906,0.634773,2.223,114.674,0.303851,0.0423469,0.951486,3.03783,-2.07141,-0.00174566,-0.0260949,3.88223,0.395318,0,-1.6,0,11851,49.202,22.962,11297.8
690194257,0.634773,2.223,114.663,0.254876,0.0395865,0.948741,2.74613,-1.85177,-0.0410696,0.0856182,3.39551,0.804129,0,-1.6,0,11851,49.202,22.962,11297.8
690294635,0.634773,2.223,114.646,0.201679,0.0338314,0.94565,2.48597,-1.66191,-0.0491085,0.0368903,3.00258,0.365006,0,-1.6,0,11851,49.202,22.962,11297.8
690394975,0.634773,2.223,114.644,0.157966,0.0302041,0.944733,2.28209,-1.49732,-0.084733,0.164881,2.44379,0.0797303,0,-1.6,0,11851,49.181,23.827,11718.4
690495337,0.634773,2.223,114.644,0.119683,0.0296029,0.94463,2.11203,-1.34752,-0.0933165,0.200617,2.00887,0.422583,0,-1.6,0,11851,49.181,23.827,11718.4
690595687,0.634773,2.223,114.629,0.0848545,0.034467,0.94515,1.95633,-1.22022,-0.0728017,0.118954,1.73242,0.312022,0,-1.6,0,11851,49.181,23.827,11718.4
690696056,0.634773,2.223,114.614,0.0570509,0.0378056,0.945561,1.84217,-1.10432,-0.0863894,0.321526,1.40381,0.218211,0,-1.6,0,11851,49.181,23.827,11718.4
690796344,0.634773,2.223,114.61,0.0267808,0.045582,0.945626,1.73388,-1.00574,-0.0637247,0.187515,1.23171,0.320517,0,-1.6,0,11851,49.181,23.827,11718.4
690896651,0.634773,2.223,114.611,-0.000172009,0.0521523,0.945338,1.65699,-0.939613,-0.0407777,0.0646002,0.829899,-0.0126045,0,-1.6,0,11851,49.181,23.827,11718.4
690997026,0.634773,2.223,114.611,-0.0185125,0.057193,0.945221,1.59587,-0.894691,-0.0370407,0.0272706,0.616927,0.106026,0,-1.6,0,11851,49.181,23.827,11718.4
691097374,0.634773,2.223,114.607,-0.031786,0.0605028,0.945167,1.54324,-0.868229,-0.0256039,-0.0482161,0.477505,0.0010582,0,-1.6,0,11851,49.181,23.827,11718.4
691197790,0.634773,2.223,114.616,-0.04325,0.0613948,0.945568,1.50553,-0.84325,-0.0188215,0.0195511,0.358171,0.140791,0,-1.6,0,11851,49.181,23.827,11718.4
691298128,0.634773,2.223,114.624,-0.0537593,0.0639114,0.945143,1.48623,-0.824364,0.00385587,0.0170408,0.237129,-0.1281,0,-1.6,0,11851,49.181,23.827,11718.4
691398523,0.634773,2.223,114.623,-0.0584991,0.0671793,0.944812,1.47463,-0.813057,-0.00897158,0.0132628,0.147528,-0.171226,0,-1.6,0,11851,49.181,23.827,11718.4
691498941,0.634773,2.223,114.616,-0.0626587,0.0696274,0.944314,1.4594,-0.816473,0.000412188,-0.0820722,0.124563,0.0750031,0,2.8,0,11851,49.35,21.235,10479.5
691599313,0.634773,2.223,114.618,-0.0489794,0.0692952,0.942904,1.44976,-0.820666,0.00229724,-0.0360065,0.144416,0.289359,0,2.8,0,11851,49.35,21.235,10479.5
691699697,0.634773,2.223,114.629,0.127206,0.0547249,0.951684,1.42649,-0.822347,0.0912531,-0.083094,0.531439,0.560279,0,2.8,0,11851,49.35,21.235,10479.5
691800086,0.634773,2.223,114.641,0.283591,0.0463659,0.955699,1.23363,-0.677113,0.0607843,0.0340978,2.78053,-0.224093,0,2.8,0,11851,49.35,21.235,10479.5
691900453,0.634773,2.223,114.636,0.377826,0.0397068,0.955238,0.944023,-0.454289,-0.000485884,0.122419,3.75175,1.08682,0,2.8,0,11851,49.35,21.235,10479.5
692000818,0.634773,2.223,114.638,0.427445,0.0349911,0.953039,0.576034,-0.167197,-0.0254262,0.1876,4.55264,1.56636,0,2.8,0,11851,49.35,21.235,10479.5
692101175,0.634773,2.223,114.63,0.449142,0.0299184,0.949544,0.170762,0.14678,-0.0411865,0.176543,4.75519,1.99259,0,2.8,0,11851,49.35,21.235,10479.5
692201534,0.634773,2.223,114.594,0.452582,0.030798,0.947847,-0.233496,0.471279,-0.0675073,0.304034,4.75182,2.12824,0,2.8,0,11851,49.35,21.235,10479.5
692301896,0.634773,2.223,114.558,0.430858,0.0420373,0.94861,-0.647053,0.803101,-0.0784144,0.29693,4.80074,2.17366,0,2.8,0,11851,49.35,21.235,10479.5
692402227,0.634773,2.223,114.557,0.371967,0.0533612,0.949355,-1.05396,1.11116,-0.0628763,0.199516,4.36149,2.32391,0,2.8,0,11851,49.35,21.235,10479.5
692502613,0.634773,2.223,114.562,0.293742,0.0629186,0.949829,-1.39464,1.36086,-0.0298955,0.096688,3.7599,1.42528,0,2.8,0,11851,49.404,18.942,9358.11
692602953,0.634773,2.223,114.566,0.211847,0.0707061,0.950436,-1.65663,1.53889,-0.00590528,-0.0683019,2.83832,0.640711,0,2.8,0,11851,49.404,18.942,9358.11
692703315,0.634773,2.223,114.575,0.148837,0.0741542,0.95043,-1.85144,1.65872,0.0112528,-0.122075,2.05935,0.462151,0,2.8,0,11851,49.404,18.942,9358.11
692803634,0.634773,2.223,114.607,0.0983746,0.0765132,0.95037,-2.0222,1.75317,0.0319548,-0.179157,1.33617,0.0612689,0,2.8,0,11851,49.404,18.942,9358.11
692903996,0.634773,2.223,114.636,0.0632481,0.0784304,0.950355,-2.11899,1.79033,0.0368206,-0.258701,0.870619,-0.137297,0,2.8,0,11851,49.404,18.942,9358.11
693004395,0.634773,2.223,114.643,0.039932,0.076756,0.950099,-2.195,1.81359,0.0337833,-0.226242,0.616071,-0.00658853,0,2.8,0,11851,49.404,18.942,9358.11
693104702,0.634773,2.223,114.652,0.022463,0.074099,0.94992,-2.25204,1.82876,0.0248906,-0.23344,0.469381,-0.126018,0,2.8,0,11851,49.404,18.942,9358.11
693205056,0.634773,2.223,114.662,0.013299,0.0710462,0.949889,-2.29499,1.82967,0.0345694,-0.221796,0.325917,-0.194241,0,2.8,0,11851,49.404,18.942,9358.11
693305428,0.634773,2.223,114.668,0.00553498,0.0674628,0.949503,-2.32511,1.83164,0.0190476,-0.161758,0.332378,-0.0975473,0,2.8,0,11851,49.404,18.942,9358.11
693405799,0.634773,2.223,114.664,0.00383829,0.0651591,0.949559,-2.34243,1.8285,0.00413678,-0.0902073,0.228784,-0.18325,0,2.8,0,11851,49.404,18.942,9358.11
693506155,0.634773,2.223,114.657,0.00315429,0.064458,0.9492,-2.35553,1.827,-0.00887535,-0.0534755,0.190669,-0.164125,0,-0.5,0,11851,49.304,22.725,11204.3
693606538,0.634773,2.223,114.653,-0.0186672,0.0606161,0.949714,-2.36561,1.83059,-0.00532094,-0.00226765,0.284292,0.420232,0,-0.5,0,11851,49.304,22.725,11204.3
693706951,0.634773,2.223,114.653,-0.181222,0.0471392,0.940738,-2.32814,1.80352,0.0469615,0.078226,-0.652434,-0.377622,0,-0.5,0,11851,49.304,22.725,11204.3
693807328,0.634773,2.223,114.647,-0.335197,0.0420739,0.938393,-2.12567,1.68388,-0.0222653,0.196339,-2.39618,0.14686,0,-0.5,0,11851,49.304,22.725,11204.3
693907676,0.634772,2.223,114.627,-0.424533,0.0424601,0.938636,-1.80441,1.47481,-0.0650705,0.195499,-3.41482,1.58074,0,-0.5,0,11851,49.304,22.725,11204.3
694007984,0.634772,2.223,114.611,-0.463894,0.0469835,0.938207,-1.41385,1.21153,-0.0675402,0.175608,-4.05333,2.02085,0,-0.5,0,11851,49.304,22.725,11204.3
694108487,0.634772,2.223,114.596,-0.43079,0.0523702,0.939022,-1.00494,0.926552,-0.0518438,0.1398,-3.98022,2.51622,0,-0.5,0,11851,49.304,22.725,11204.3
694208936,0.634772,2.223,114.576,-0.360978,0.0593464,0.939024,-0.652499,0.675056,-0.0140794,0.0638037,-3.42742,1.93498,0,-0.5,0,11851,49.304,22.725,11204.3
694309340,0.634772,2.223,114.557,-0.285007,0.0663926,0.938343,-0.387026,0.479673,0.00150655,-0.0363567,-2.69773,1.13643,0,-0.5,0,11851,49.304,22.725,11204.3
694409696,0.634772,2.223,114.567,-0.224252,0.0722122,0.93727,-0.201689,0.326162,0.0160281,-0.147291,-2.05543,0.291869,0,-0.5,0,11851,49.304,22.725,11204.3
694510065,0.634772,2.223,114.585,-0.178467,0.0748169,0.93738,-0.0619794,0.210513,0.0284973,-0.108356,-1.46487,0.270128,0,-0.5,0,11851,49.032,25.758,12629.7
694610430,0.634772,2.223,114.593,-0.1443,0.0744385,0.938483,0.0368705,0.114587,0.0370413,-0.132333,-1.0021,0.278854,0,-0.5,0,11851,49.032,25.758,12629.7
694710785,0.634773,2.223,114.609,-0.118282,0.0695841,0.939851,0.106118,0.043196,0.0411075,-0.138536,-0.648322,0.0297051,0,-0.5,0,11851,49.032,25.758,12629.7
694811171,0.634773,2.223,114.626,-0.101803,0.063274,0.941131,0.160243,-0.0138927,0.0446361,-0.0607107,-0.520302,-0.00971892,0,-0.5,0,11851,49.032,25.758,12629.7
694911534,0.634773,2.223,114.642,-0.0874859,0.060541,0.941781,0.21323,-0.0501803,0.0430691,-0.00779129,-0.397727,-0.352791,0,-0.5,0,11851,49.032,25.758,12629.7
695011890,0.634773,2.223,114.646,-0.0781693,0.0605799,0.942171,0.246973,-0.0838425,0.0307442,-0.0702153,-0.309875,-0.28278,0,-0.5,0,11851,49.032,25.758,12629.7
695112288,0.634773,2.223,114.647,-0.0685199,0.0629045,0.942954,0.275453,-0.108003,0.0162385,-0.0326098,-0.202595,-0.29549,0,-0.5,0,11851,49.032,25.758,12629.7
695212671,0.634773,2.223,114.646,-0.0638101,0.0631923,0.943528,0.296232,-0.131961,0.00807177,-0.0343878,-0.174445,0.160834,0,-0.5,0,11851,49.032,25.758,12629.7
695313934,0.634773,2.223,114.641,-0.0635452,0.0626337,0.943483,0.312271,-0.146379,-0.00285216,-0.0206651,-0.158962,-0.1661,0,-0.5,0,11851,49.032,25.758,12629.7
695415402,0.634773,2.223,114.634,-0.0641661,0.058993,0.943274,0.323785,-0.157384,-0.0155518,0.0179482,-0.113153,-0.112371,0,-0.5,0,11851,49.032,25.758,12629.7
695515789,0.634773,2.223,114.626,-0.0636046,0.0567765,0.943305,0.337922,-0.166166,-0.0207861,0.111281,-0.142646,0.0713326,0,4,0,11851,49.032,25.758,12629.7
695616098,0.634773,2.223,114.624,-0.0415645,0.0552639,0.94226,0.354858,-0.174251,-0.0108283,0.0723821,-0.171752,0.315775,0,4,0,11851,49.088,26.081,12802.6
695716489,0.634773,2.223,114.621,0.13721,0.0432685,0.950521,0.340246,-0.167099,0.0572958,0.0752559,0.421426,0.299148,0,4,0,11851,49.088,26.081,12802.6
695816859,0.634773,2.223,114.634,0.305109,0.0376071,0.954316,0.155424,-0.0130615,0.0196789,0.200748,2.64221,-0.12597,0,4,0,11851,49.088,26.081,12802.6
695918078,0.634773,2.223,114.637,0.405097,0.0377494,0.955366,-0.149348,0.223253,-0.0386342,0.215784,3.78023,1.14153,0,4,0,11851,49.088,26.081,12802.6
696023053,0.634773,2.223,114.639,0.452541,0.0352746,0.954015,-0.543285,0.532676,-0.0506393,0.278987,4.44478,2.17533,0,4,0,11851,49.088,26.081,12802.6
696123402,0.634773,2.223,114.644,0.461985,0.0354703,0.952225,-0.962441,0.863762,-0.0499616,0.326439,4.63115,2.29561,0,4,0,11851,49.088,26.081,12802.6
696223752,0.634773,2.223,114.637,0.448697,0.041601,0.952316,-1.4569,1.26087,-0.0414163,0.305166,4.54163,2.3195,0,4,0,11851,49.088,26.081,12802.6
696324114,0.634772,2.223,114.627,0.404645,0.047809,0.952044,-1.85266,1.57276,-0.0381028,0.253056,4.24106,2.20167,0,4,0,11851,49.088,26.081,12802.6
696424467,0.634772,2.223,114.632,0.330547,0.0547954,0.952306,-2.1401,1.79618,-0.0107727,0.159947,4.0237,1.46025,0,4,0,11851,49.088,26.081,12802.6
696524823,0.634772,2.223,114.647,0.250907,0.0642858,0.953678,-2.46905,2.04253,-0.00921887,0.0565056,2.84405,0.72225,0,4,0,11851,49.088,26.081,12802.6
696625173,0.634772,2.223,114.655,0.178075,0.0741072,0.95466,-2.66169,2.17147,0.0102655,-0.0664756,1.96608,0.389208,0,4,0,11851,48.989,26.11,12791
696725550,0.634772,2.223,114.659,0.127429,0.0796937,0.954455,-2.81256,2.25651,0.0113889,-0.200421,1.46722,0.0867631,0,4,0,11851,48.989,26.11,12791
696825927,0.634772,2.223,114.667,0.095004,0.0810836,0.954154,-2.93587,2.30955,0.00126802,-0.248423,1.08554,0.15293,0,4,0,11851,48.989,26.11,12791
696926296,0.634772,2.223,114.679,0.0742692,0.079854,0.953776,-3.02409,2.3519,0.00987457,-0.14878,0.767883,-0.0856695,0,4,0,11851,48.989,26.11,12791
697027223,0.634772,2.223,114.678,0.0583349,0.0788925,0.953486,-3.08907,2.37508,-0.00404114,-0.181076,0.526515,-0.0536623,0,4,0,11851,48.989,26.11,12791
697128345,0.634772,2.223,114.675,0.0487454,0.0751193,0.953206,-3.14452,2.38637,-0.00885881,-0.195395,0.366248,-0.0468388,0,4,0,11851,48.989,26.11,12791
697228747,0.634772,2.223,114.678,0.0429574,0.069394,0.952143,-3.18542,2.39689,-0.0148899,-0.090242,0.376632,0.0580972,0,4,0,11851,48.989,26.11,12791
697329126,0.634772,2.223,114.681,0.0375602,0.0674409,0.951366,-3.21355,2.40803,-0.0183259,-0.0593561,0.303523,-0.263247,0,4,0,11851,48.989,26.11,12791
697429500,0.634772,2.223,114.679,0.0373774,0.0638061,0.950537,-3.22991,2.4145,-0.0202786,0.0175887,0.208409,0.0562895,0,4,0,11851,48.989,26.11,12791
697529866,0.634772,2.223,114.675,0.0336981,0.061409,0.949987,-3.2474,2.42121,-0.0163779,-0.020396,0.224193,0.142744,0,-4.2,0,11851,48.989,26.11,12791
697630196,0.634772,2.223,114.674,-0.000457601,0.0553981,0.950785,-3.25948,2.42974,-0.0178722,0.0459766,0.273544,0.292522,0,-4.2,0,11851,49.069,25.247,12388.5
697730761,0.634772,2.223,114.673,-0.189607,0.0346064,0.9413,-3.21562,2.40319,0.0435505,0.142059,-0.764654,0.144688,0,-4.2,0,11851,49.069,25.247,12388.5
697831143,0.634772,2.223,114.676,-0.352037,0.0235013,0.941244,-2.98654,2.27739,-0.00991004,0.354031,-2.77017,-0.0345703,0,-4.2,0,11851,49.069,25.247,12388.5
697931521,0.634772,2.223,114.675,-0.452354,0.0186169,0.94335,-2.62259,2.05503,-0.0570385,0.359677,-3.88019,1.7456,0,-4.2,0,11851,49.069,25.247,12388.5
698031834,0.634772,2.223,114.67,-0.49858,0.0162959,0.94505,-2.17393,1.77382,-0.059655,0.386439,-4.54073,2.32769,0,-4.2,0,11851,49.069,25.247,12388.5
698132237,0.634772,2.223,114.665,-0.50379,0.015434,0.946906,-1.69362,1.48309,-0.068843,0.482344,-4.82554,2.42897,0,-4.2,0,11851,49.069,25.247,12388.5
698232582,0.634772,2.223,114.647,-0.491403,0.0151565,0.947734,-1.21125,1.1995,-0.0602972,0.512936,-4.58598,2.72851,0,-4.2,0,11851,49.069,25.247,12388.5
698332929,0.634772,2.223,114.632,-0.471751,0.0203308,0.945979,-0.752518,0.925939,-0.044675,0.493794,-4.38903,2.58345,0,-4.2,0,11851,49.069,25.247,12388.5
698433282,0.634772,2.223,114.638,-0.453542,0.0297377,0.941753,-0.320739,0.668543,-0.0259352,0.439478,-4.15091,2.19749,0,-4.2,0,11851,49.069,25.247,12388.5
698533634,0.634772,2.223,114.643,-0.432549,0.0393557,0.938088,0.0784508,0.423466,-0.0273657,0.365267,-3.97212,1.82095,0,-4.2,0,11851,49.069,25.247,12388.5
698633987,0.634772,2.223,114.641,-0.412712,0.0488403,0.93451,0.451384,0.178956,-0.00454879,0.250443,-3.65159,1.76765,0,-4.2,0,11808,48.977,25.658,12566.5
698734355,0.634772,2.223,114.638,-0.398351,0.0590768,0.930582,0.788622,-0.0591465,-0.00337928,0.130459,-3.43004,1.60855,0,-4.2,0,11808,48.977,25.658,12566.5
698834761,0.634772,2.223,114.64,-0.388627,0.067566,0.92815,1.09596,-0.28878,-0.00156849,0.0406474,-3.17505,1.41467,0,-4.2,0,11808,48.977,25.658,12566.5
698935143,0.634772,2.223,114.645,-0.382764,0.0761692,0.92606,1.38991,-0.51723,-0.000903964,-0.0858433,-3.20493,1.10306,0,-4.2,0,11808,48.977,25.658,12566.5
699035494,0.634772,2.223,114.642,-0.380018,0.0830468,0.924399,1.65811,-0.746514,-0.0130111,-0.264648,-3.06398,1.07817,0,-4.2,0,11808,48.977,25.658,12566.5
699135826,0.634772,2.223,114.64,-0.377765,0.0898585,0.923498,1.92389,-0.973157,-0.00934807,-0.233203,-2.95782,1.08624,0,-4.2,0,11808,48.977,25.658,12566.5
699236226,0.634772,2.223,114.643,-0.36847,0.0942887,0.922264,2.17488,-1.21043,-0.0113456,-0.350256,-2.98427,1.13902,0,-4.2,0,11808,48.977,25.658,12566.5
699336958,0.634772,2.223,114.647,-0.335253,0.0922159,0.924698,2.40327,-1.43827,0.00715775,-0.339916,-2.67929,1.26381,0,-4.2,0,11808,48.977,25.658,12566.5
699438700,0.634772,2.223,114.652,-0.298723,0.0875944,0.927635,2.59145,-1.6328,0.0149413,-0.364658,-2.22665,0.938682,0,-4.2,0,11808,48.977,25.658,12566.5
699539187,0.634772,2.223,114.662,-0.262559,0.0824239,0.930256,2.74604,-1.79478,0.0252421,-0.266753,-1.85129,0.731841,0,-0.9,0,11808,48.977,25.658,12566.5
699639552,0.634772,2.223,114.673,-0.214398,0.0791024,0.930915,2.87176,-1.92182,0.0324729,-0.188129,-1.5486,0.503807,0,-0.9,0,11764,48.946,26.25,12848.3
699739908,0.634772,2.223,114.687,0.0225722,0.0761871,0.947407,2.96695,-2.02426,0.120738,-0.117368,-0.978271,0.750393,0,-0.9,0,11764,48.946,26.25,12848.3
699840315,0.634772,2.223,114.7,0.283883,0.0711363,0.959052,2.79472,-1.92363,0.166396,-0.0516441,2.24436,1.00957,0,-0.9,0,11764,48.946,26.25,12848.3
699940642,0.634772,2.223,114.709,0.375147,0.06968,0.96072,2.44307,-1.67999,0.104545,-0.0432882,4.51539,-0.14616,0,-0.9,0,11764,48.946,26.25,12848.3
700041020,0.634772,2.223,114.719,0.362992,0.0696603,0.958966,2.07481,-1.43709,-0.0307092,-0.131398,4.31458,0.980704,0,-0.9,0,11764,48.946,26.25,12848.3
700141376,0.634772,2.223,114.72,0.304341,0.0573065,0.95265,1.70411,-1.20032,-0.0546827,-0.181995,4.09491,0.897279,0,-0.9,0,11764,48.946,26.25,12848.3
700241713,0.634772,2.223,114.686,0.228577,0.037769,0.945755,1.41397,-0.993067,-0.103491,0.0872375,3.26988,0.631157,0,-0.9,0,11764,48.946,26.25,12848.3
700342040,0.634772,2.223,114.647,0.168367,0.0306877,0.944299,1.19977,-0.799213,-0.103484,0.379078,2.54992,0.667719,0,-0.9,0,11764,48.946,26.25,12848.3
700442296,0.634772,2.223,114.626,0.116882,0.0350666,0.945303,1.02805,-0.639491,-0.10843,0.32977,2.02409,0.414646,0,-0.9,0,11764,48.946,26.25,12848.3
700542623,0.634772,2.223,114.609,0.0666151,0.046795,0.945985,0.885458,-0.513639,-0.0815297,0.19433,1.50968,0.381021,0,-0.9,0,11764,48.946,26.25,12848.3
700642960,0.634772,2.223,114.589,0.0273932,0.0534607,0.945622,0.780038,-0.427892,-0.0675983,0.171063,0.992796,0.325847,0,-0.9,0,11764,48.803,29.163,14232.4
700743305,0.634772,2.223,114.574,-0.00301879,0.0567995,0.944813,0.703543,-0.364128,-0.0435786,0.12106,0.702114,0.691313,0,-0.9,0,11764,48.803,29.163,14232.4
700843659,0.634772,2.223,114.571,-0.0243568,0.0606057,0.944136,0.648661,-0.322976,-0.00843064,0.124814,0.383965,0.294427,0,-0.9,0,11764,48.803,29.163,14232.4
700944046,0.634772,2.223,114.572,-0.0399763,0.0632393,0.943268,0.605433,-0.29403,-0.00493214,0.0205051,0.16702,-0.0656283,0,-0.9,0,11764,48.803,29.163,14232.4
701044407,0.634772,2.223,114.571,-0.0540268,0.0637695,0.942878,0.574125,-0.289649,0.00650854,-0.069055,0.0824965,0.0277441,0,-0.9,0,11764,48.803,29.163,14232.4
701144699,0.634772,2.223,114.576,-0.0648343,0.0635011,0.942598,0.561279,-0.301141,0.0242326,-0.147272,-0.154906,-0.14497,0,-0.9,0,11764,48.803,29.163,14232.4
701245038,0.634772,2.223,114.59,-0.0681315,0.0630145,0.94231,0.559196,-0.30723,0.030155,-0.0416883,-0.1166,0.0794894,0,-0.9,0,11764,48.803,29.163,14232.4
701345337,0.634772,2.223,114.605,-0.0696957,0.0621978,0.942468,0.567129,-0.318778,0.0355091,-0.0232502,-0.232495,-0.0203163,0,-0.9,0,11764,48.803,29.163,14232.4
701445766,0.634772,2.223,114.618,-0.0689343,0.0618731,0.942542,0.573176,-0.33645,0.0368318,-0.0934524,-0.211239,-0.103901,0,-0.9,0,11764,48.803,29.163,14232.4
701546116,0.634772,2.223,114.627,-0.0675899,0.0594519,0.942725,0.580931,-0.346924,0.0306399,-0.0212886,-0.141248,-0.235883,0,0.7,0,11764,48.803,29.163,14232.4
701646490,0.634772,2.223,114.631,-0.0438105,0.0581818,0.941321,0.590197,-0.355861,0.0359309,0.0105961,-0.110113,0.363732,0,0.7,0,11764,48.797,28.535,13924.2
701746808,0.634772,2.223,114.631,0.0814031,0.0542366,0.948976,0.548041,-0.333365,0.0660574,-0.0347509,0.814991,-0.405606,0,0.7,0,11764,48.797,28.535,13924.2
701847191,0.634772,2.223,114.631,0.181586,0.0556456,0.952216,0.404396,-0.229323,0.00679017,-0.027217,1.92214,-0.0783814,0,0.7,0,11764,48.797,28.535,13924.2
701947533,0.634772,2.223,114.624,0.222228,0.057906,0.952039,0.188484,-0.0832761,-0.0150732,-0.0113952,2.6069,0.594924,0,0.7,0,11764,48.797,28.535,13924.2
702047838,0.634772,2.223,114.62,0.213079,0.0584314,0.95162,-0.0406819,0.0732181,-0.0119414,-0.0224287,2.70285,0.534538,0,0.7,0,11764,48.797,28.535,13924.2
702148196,0.634772,2.223,114.616,0.178097,0.0557304,0.949991,-0.234859,0.212745,-0.0190239,0.0704781,2.29099,0.225055,0,0.7,0,11764,48.797,28.535,13924.2
702248540,0.634772,2.223,114.605,0.124883,0.0536528,0.948611,-0.392456,0.331093,-0.024425,0.0964701,1.86888,0.288528,0,0.7,0,11764,48.797,28.535,13924.2
702348844,0.634772,2.223,114.597,0.0867346,0.0518934,0.947641,-0.509604,0.418317,-0.0168575,0.0425362,1.39393,0.238395,0,0.7,0,11764,48.797,28.535,13924.2
702449196,0.634772,2.223,114.597,0.0507701,0.0498709,0.946945,-0.598504,0.481887,-0.00720311,0.0103919,1.0526,0.0606313,0,0.7,0,11764,48.797,28.535,13924.2
702549496,0.634772,2.223,114.592,0.0283444,0.0500574,0.946319,-0.656063,0.528438,-0.01172,0.0759845,0.69457,0.136484,0,0.7,0,11764,48.797,28.535,13924.2
702649851,0.634772,2.223,114.584,0.0105061,0.0518067,0.945489,-0.699274,0.571231,-0.00494242,0.11306,0.564025,0.260209,0,0.7,0,11764,48.797,28.535,13924.2
702750196,0.634772,2.223,114.578,-0.00279026,0.0543333,0.945306,-0.730733,0.596671,0.00503338,0.0367491,0.348162,-0.052365,0,0.7,0,11764,49.018,23.552,11544.7
702850553,0.634772,2.223,114.578,-0.0142846,0.0562041,0.944914,-0.750292,0.615825,0.0147254,-0.0090115,0.224977,0.00931031,0,0.7,0,11764,49.018,23.552,11544.7
702950908,0.634772,2.223,114.582,-0.0212461,0.0596984,0.94473,-0.766515,0.622615,0.0166762,-0.052259,0.155838,-0.128551,0,0.7,0,11764,49.018,23.552,11544.7
703051236,0.634772,2.223,114.581,-0.0251593,0.0610443,0.944289,-0.770962,0.622483,0.0185799,-0.0584444,0.0406094,-0.00546855,0,0.7,0,11764,49.018,23.552,11544.7
703151568,0.634772,2.223,114.58,-0.0264117,0.0616969,0.944452,-0.780283,0.620012,0.0235767,-0.0976231,0.084955,0.0015683,0,0.7,0,11764,49.018,23.552,11544.7
703251965,0.634772,2.223,114.578,-0.0278196,0.0620381,0.94457,-0.777722,0.611363,0.0202926,-0.128987,0.0278567,-0.186109,0,0.7,0,11764,49.018,23.552,11544.7
703352382,0.634772,2.223,114.575,-0.0261987,0.0609582,0.944546,-0.775771,0.605477,0.0213773,-0.0518307,0.0373646,0.0551643,0,0.7,0,11764,49.018,23.552,11544.7
703452760,0.634772,2.223,114.562,-0.0245101,0.0601383,0.944548,-0.78238,0.603891,0.0237466,-0.106829,0.136191,-0.00779684,0,0.7,0,11764,49.018,23.552,11544.7
703553323,0.634772,2.223,114.557,-0.0243952,0.0586594,0.944507,-0.788652,0.599126,0.0258843,-0.0938155,0.112606,0.0612339,0,-3.9,0,11764,49.018,23.552,11544.7
703654829,0.634772,2.223,114.555,-0.0617778,0.0538376,0.944661,-0.789087,0.603355,0.0279138,-0.000253,0.165084,0.158244,0,-3.9,0,11764,49.018,23.552,11544.7
703755148,0.634772,2.223,114.554,-0.208291,0.039367,0.938412,-0.739278,0.566984,0.0571396,0.0362057,-0.819035,-0.0649547,0,-3.9,0,11764,48.986,24.354,11930.1
703855503,0.634772,2.223,114.559,-0.336832,0.0302029,0.938216,-0.552865,0.453878,0.0120628,0.197833,-2.19795,0.438334,0,-3.9,0,11764,48.986,24.354,11930.1
703956891,0.634772,2.223,114.563,-0.414664,0.02631,0.9395,-0.258561,0.275801,-0.00223871,0.265574,-3.09665,1.36343,0,-3.9,0,11764,48.986,24.354,11930.1
704063623,0.634772,2.223,114.556,-0.449103,0.0295104,0.938838,0.105609,0.053441,-0.00574029,0.372924,-3.75296,1.66639,0,-3.9,0,11764,48.986,24.354,11930.1
704163997,0.634772,2.223,114.546,-0.456549,0.0351334,0.937288,0.486367,-0.187589,-0.00424889,0.336511,-3.71518,2.18251,0,-3.9,0,11764,48.986,24.354,11930.1
704264401,0.634772,2.223,114.531,-0.449675,0.0407586,0.936031,0.868147,-0.436458,0.0146474,0.220206,-3.92572,1.81404,0,-3.9,0,11764,48.986,24.354,11930.1
704364736,0.634772,2.223,114.518,-0.440772,0.0501097,0.933439,1.22042,-0.679518,0.0215884,0.151692,-3.51763,2.05591,0,-3.9,0,11764,48.986,24.354,11930.1
704465101,0.634772,2.223,114.515,-0.43091,0.0591694,0.930692,1.62987,-0.971948,0.0314177,0.0348863,-3.54031,1.72495,0,-3.9,0,11764,48.986,24.354,11930.1
704565482,0.634772,2.223,114.516,-0.402057,0.0664956,0.929599,1.95074,-1.21617,0.0362119,-0.0641728,-3.38375,1.75248,0,-3.9,0,11764,48.986,24.354,11930.1
704665796,0.634772,2.223,114.517,-0.3528,0.0709239,0.930746,2.2193,-1.42324,0.054485,-0.0988233,-2.88247,1.08022,0,-3.9,0,11764,48.986,24.354,11930.1
704766960,0.634772,2.223,114.52,-0.301239,0.0769205,0.931242,2.4335,-1.59866,0.0572692,-0.148534,-2.32835,0.732914,0,-3.9,0,11719,48.968,24.737,12113.2
704869240,0.634772,2.223,114.532,-0.251433,0.0804383,0.932344,2.5996,-1.75452,0.0671696,-0.297235,-1.965,0.381778,0,-3.9,0,11719,48.968,24.737,12113.2
704969648,0.634772,2.223,114.545,-0.217825,0.0762706,0.933989,2.72159,-1.87779,0.066468,-0.254466,-1.45233,0.346136,0,-3.9,0,11719,48.968,24.737,12113.2
705070047,0.634772,2.223,114.554,-0.193149,0.0734697,0.935737,2.8195,-1.96941,0.0644713,-0.152602,-1.10702,0.190058,0,-3.9,0,11719,48.968,24.737,12113.2
705170449,0.634773,2.223,114.56,-0.171432,0.0684733,0.937354,2.89599,-2.04744,0.0553314,-0.164456,-0.92079,0.0177139,0,-3.9,0,11719,48.968,24.737,12113.2
705270854,0.634773,2.223,114.571,-0.153694,0.0639491,0.938942,2.95702,-2.10935,0.0558288,-0.108455,-0.716271,0.13094,0,-3.9,0,11719,48.968,24.737,12113.2
705371274,0.634773,2.223,114.584,-0.143223,0.0617003,0.940095,3.00756,-2.15289,0.053047,0.0127306,-0.599061,0.00303952,0,-3.9,0,11719,48.968,24.737,12113.2
705471641,0.634773,2.223,114.59,-0.135837,0.0592458,0.941121,3.03579,-2.18837,0.0510303,-0.0666075,-0.477984,-0.263104,0,-3.9,0,11719,48.968,24.737,12113.2
705571994,0.634773,2.223,114.591,-0.128885,0.0570306,0.941699,3.06118,-2.20921,0.02894,-0.0185018,-0.33617,-0.211669,0,-4.5,0,11719,48.968,24.737,12113.2
705672379,0.634773,2.223,114.589,-0.142151,0.056537,0.941796,3.09434,-2.22615,0.0354174,0.130963,-0.251485,0.685101,0,-4.5,0,11719,48.968,24.737,12113.2
705772725,0.634773,2.223,114.593,-0.171963,0.0544444,0.940399,3.13588,-2.26178,0.0424285,0.00401133,-0.69016,-0.313969,0,-4.5,0,11719,48.933,25.136,12299.8
705873061,0.634773,2.223,114.586,-0.194498,0.0531802,0.939951,3.20004,-2.30323,0.00486561,0.0515377,-0.899418,-0.000669092,0,-4.5,0,11719,48.933,25.136,12299.8
705973365,0.634773,2.223,114.573,-0.205158,0.0533828,0.93956,3.28453,-2.36011,-0.00799567,0.0483293,-1.13851,0.100561,0,-4.5,0,11719,48.933,25.136,12299.8
706073741,0.634773,2.223,114.567,-0.196292,0.0521486,0.939984,3.37107,-2.42305,-0.00527207,0.0308689,-1.11008,0.237531,0,-4.5,0,11719,48.933,25.136,12299.8
706174103,0.634773,2.223,114.57,-0.181817,0.0513318,0.940683,3.4427,-2.46974,0.00270721,0.123718,-0.889542,0.389677,0,-4.5,0,11719,48.933,25.136,12299.8
706274454,0.634773,2.223,114.557,-0.168413,0.0528646,0.940726,3.51212,-2.50486,0.0123058,0.129205,-0.845998,0.254725,0,-4.5,0,11719,48.933,25.136,12299.8
706374817,0.634773,2.223,114.534,-0.156719,0.0548823,0.940583,3.56149,-2.541,0.0156318,-0.0299513,-0.645481,0.248687,0,-4.5,0,11719,48.933,25.136,12299.8
706475173,0.634773,2.223,114.531,-0.144416,0.056503,0.940441,3.61007,-2.57266,0.021983,0.0447905,-0.614791,0.21626,0,-4.5,0,11719,48.933,25.136,12299.8
706575550,0.634773,2.223,114.531,-0.136009,0.0594113,0.940684,3.64367,-2.59189,0.0432123,0.06566,-0.404961,0.207875,0,-4.5,0,11719,48.933,25.136,12299.8
706675915,0.634773,2.223,114.524,-0.130166,0.0601519,0.940896,3.66697,-2.61095,0.0434793,0.00932712,-0.371486,0.205487,0,-4.5,0,11719,48.933,25.136,12299.8
706776312,0.634773,2.223,114.524,-0.124358,0.0570365,0.941279,3.68656,-2.63271,0.066604,0.00768034,-0.258822,0.335805,0,-4.5,0,11719,48.881,28.887,14120.3
706876664,0.634773,2.223,114.539,-0.125103,0.0567641,0.94145,3.70021,-2.64393,0.0670148,-0.00938783,-0.268783,-0.141011,0,-4.5,0,11719,48.881,28.887,14120.3
706976971,0.634773,2.223,114.554,-0.125086,0.0571589,0.941158,3.71801,-2.6552,0.051618,0.061614,-0.261858,-0.0294591,0,-4.5,0,11719,48.881,28.887,14120.3
707077317,0.634774,2.223,114.557,-0.120879,0.0573432,0.941271,3.72627,-2.67415,0.0449117,-0.099398,-0.240786,-0.205938,0,-4.5,0,11719,48.881,28.887,14120.3
707177684,0.634774,2.223,114.558,-0.117248,0.0579275,0.941375,3.73436,-2.68973,0.0384663,-0.0615139,-0.192895,0.017822,0,-4.5,0,11719,48.881,28.887,14120.3
707278822,0.634774,2.223,114.563,-0.11431,0.0567329,0.941769,3.74595,-2.70343,0.0387508,-0.0202226,-0.22927,0.0236357,0,-4.5,0,11719,48.881,28.887,14120.3
707387625,0.634774,2.223,114.573,-0.111768,0.0533799,0.941698,3.74855,-2.72105,0.0343026,-0.0548541,-0.128152,-0.0354879,0,-4.5,0,11719,48.881,28.887,14120.3
707488058,0.634774,2.223,114.577,-0.108103,0.0495898,0.942306,3.75476,-2.7176,0.0323569,0.115583,-0.108236,-0.00371797,0,-4.5,0,11719,48.881,28.887,14120.3
707588495,0.634774,2.223,114.579,-0.107331,0.0505402,0.941854,3.75865,-2.71591,0.0354576,0.0259199,-0.121751,-0.17739,0,1.7,0,11719,48.881,28.887,14120.3
707688819,0.634774,2.223,114.579,-0.0824948,0.0504992,0.940179,3.75991,-2.71902,0.0237864,0.0139086,-0.0612974,0.476458,0,1.7,0,11719,48.881,28.887,14120.3
707790261,0.634774,2.223,114.584,0.122923,0.0369722,0.94891,3.71214,-2.68462,0.100758,0.0975623,0.926806,0.80668,0,1.7,0,11719,48.881,28.887,14120.3
707893877,0.634774,2.223,114.597,0.316673,0.0300512,0.951578,3.45617,-2.46875,0.104512,0.278027,3.44109,0.347387,0,1.7,0,11719,48.881,28.887,14120.3
707994242,0.634774,2.223,114.606,0.402517,0.0290827,0.951463,3.1069,-2.18415,0.0589498,0.298757,4.27918,1.60666,0,1.7,0,11719,48.881,28.887,14120.3
708094592,0.634774,2.223,114.61,0.444498,0.0274555,0.950643,2.69156,-1.8586,0.0347386,0.21652,4.92612,1.5983,0,1.7,0,11719,48.881,28.887,14120.3
708194923,0.634774,2.223,114.604,0.463749,0.0225446,0.947975,2.25658,-1.52606,-0.00928086,0.119178,4.93868,2.22186,0,1.7,0,11719,48.881,28.887,14120.3
708295209,0.634774,2.223,114.59,0.471177,0.0126913,0.943115,1.80861,-1.17615,-0.0352975,0.221369,5.01441,2.33867,0,1.7,0,11719,48.881,28.887,14120.3
708395571,0.634774,2.223,114.576,0.482961,0.00839547,0.940441,1.36133,-0.804247,-0.0520217,0.390639,5.14189,2.57772,0,1.7,0,11719,48.881,28.887,14120.3
708495932,0.634774,2.223,114.56,0.488668,0.017638,0.942823,0.900583,-0.41181,-0.0672313,0.400087,5.2631,2.58069,0,1.7,0,11719,48.881,28.887,14120.3
708596311,0.634774,2.223,114.549,0.465995,0.0367683,0.947718,0.422624,-0.0283419,-0.0820609,0.260674,5.26449,2.68319,0,1.7,0,11719,48.881,28.887,14120.3
708696641,0.634774,2.223,114.543,0.388025,0.0492682,0.948978,-0.0465056,0.320578,-0.0488839,0.0974845,4.83702,2.62244,0,1.7,0,11719,48.881,28.887,14120.3
708796965,0.634774,2.223,114.548,0.294531,0.0589302,0.949227,-0.425824,0.600269,-0.0117007,0.0182564,4.06986,1.50105,0,1.7,0,11719,48.942,24.985,12228.2
708897271,0.634774,2.223,114.554,0.20379,0.0668444,0.949284,-0.713718,0.800194,0.0141599,-0.0918398,3.01258,0.869052,0,1.7,0,11719,48.942,24.985,12228.2
708997637,0.634774,2.223,114.575,0.129881,0.072742,0.949776,-0.924733,0.928833,0.031243,-0.232671,2.1084,0.261906,0,1.7,0,11719,48.942,24.985,12228.2
709098030,0.634774,2.223,114.596,0.0758367,0.0768353,0.949628,-1.05911,1.00552,0.0303119,-0.197152,1.30395,0.054471,0,1.7,0,11719,48.942,24.985,12228.2
709198411,0.634774,2.223,114.601,0.0411621,0.079944,0.950069,-1.15496,1.04607,0.038533,-0.269329,0.796643,-0.143069,0,1.7,0,11719,48.942,24.985,12228.2
709298752,0.634774,2.223,114.61,0.0205811,0.0789559,0.949547,-1.22616,1.06021,0.0355,-0.328294,0.523748,0.00207489,0,1.7,0,11719,48.942,24.985,12228.2
709399110,0.634774,2.223,114.615,0.00793641,0.0738397,0.948926,-1.27828,1.06615,0.0404575,-0.310071,0.337808,0.0315166,0,1.7,0,11719,48.942,24.985,12228.2
709499472,0.634774,2.223,114.614,0.00221235,0.0681578,0.948481,-1.31313,1.05997,0.0232086,-0.255494,0.263731,-0.168217,0,1.7,0,11719,48.942,24.985,12228.2
709599869,0.634774,2.223,114.606,0.000610026,0.0638828,0.948117,-1.33943,1.05928,0.0189091,-0.15662,0.291802,0.0715685,0,0.8,0,11719,48.942,24.985,12228.2
709701006,0.634774,2.223,114.596,-0.0116228,0.0598031,0.948644,-1.36129,1.06377,0.021521,-0.0979052,0.267305,-0.0263215,0,0.8,0,11719,48.942,24.985,12228.2
709809420,0.634774,2.223,114.587,-0.0841853,0.0552181,0.944421,-1.3548,1.04851,0.0290459,-0.0630923,-0.279767,-0.141194,0,0.8,0,11719,48.979,24.251,11877.9
709909808,0.634774,2.223,114.573,-0.133938,0.0536854,0.942858,-1.28707,0.987392,-0.00689006,-0.12336,-0.823001,0.0356094,0,0.8,0,11719,48.979,24.251,11877.9
710010225,0.634774,2.223,114.564,-0.155698,0.0537356,0.942685,-1.17568,0.90265,-0.00310369,-0.00460404,-1.18721,0.472449,0,0.8,0,11719,48.979,24.251,11877.9
710110630,0.634774,2.223,114.559,-0.14726,0.0553238,0.942975,-1.04098,0.805005,0.00565942,-0.0354559,-1.39331,0.114075,0,0.8,0,11719,48.979,24.251,11877.9
710211016,0.634774,2.223,114.551,-0.122893,0.0547638,0.943772,-0.935114,0.718259,0.0115106,-0.0657711,-1.08473,0.294097,0,0.8,0,11719,48.979,24.251,11877.9
710311219,0.634774,2.223,114.54,-0.0984202,0.0536468,0.944414,-0.853268,0.64585,0.0163332,-0.0709674,-0.839571,0.180517,0,0.8,0,11719,48.979,24.251,11877.9
710411556,0.634774,2.223,114.542,-0.0766515,0.0547692,0.944328,-0.791824,0.59523,0.0209455,-0.0236346,-0.494483,0.325817,0,0.8,0,11719,48.979,24.251,11877.9
710513447,0.634774,2.223,114.548,-0.0575511,0.0552198,0.944534,-0.747645,0.553052,0.0294959,-0.0991544,-0.321711,0.131799,0,0.8,0,11719,48.979,24.251,11877.9
710613799,0.634774,2.223,114.555,-0.0416812,0.0540269,0.94452,-0.718201,0.519381,0.0317484,-0.090693,-0.201554,-0.17515,0,0.8,0,11719,48.979,24.251,11877.9
710714151,0.634774,2.223,114.559,-0.0295623,0.053491,0.944667,-0.697852,0.500026,0.0420106,-0.0109617,-0.0175783,0.0251494,0,0.8,0,11719,48.979,24.251,11877.9
710814553,0.634774,2.223,114.572,-0.0202463,0.0539586,0.94494,-0.683865,0.488701,0.043968,-0.0274555,0.0763234,-0.200341,0,0.8,0,11719,48.979,24.251,11877.9
710914881,0.634774,2.223,114.583,-0.0162317,0.0538578,0.94497,-0.68642,0.474274,0.035235,-0.104596,0.112303,-0.254988,0,0.8,0,11719,48.979,24.251,11877.9
711015247,0.634774,2.223,114.579,-0.01444,0.0528663,0.945466,-0.69001,0.464118,0.0296957,-0.1036,0.120184,-0.0614897,0,0.8,0,11719,48.979,24.251,11877.9
711115601,0.634774,2.223,114.575,-0.0150184,0.0499548,0.945511,-0.70134,0.458606,0.0326232,-0.0969739,0.166819,-0.0876255,0,0.8,0,11719,48.979,24.251,11877.9
711215971,0.634774,2.223,114.583,-0.016325,0.0472521,0.945758,-0.715981,0.460329,0.0355881,-0.0390203,0.226971,0.0367158,0,0.8,0,11719,48.979,24.251,11877.9
711316379,0.634774,2.223,114.589,-0.0187384,0.0463924,0.945629,-0.720037,0.455103,0.0301665,-0.078962,0.0622466,-0.209154,0,0.8,0,11719,48.979,24.251,11877.9
711417571,0.634774,2.223,114.589,-0.0185903,0.0445294,0.945846,-0.720935,0.451995,0.0253317,-0.0342176,0.0409269,-0.111433,0,0.8,0,11719,48.903,25.686,12561.2
711518819,0.634774,2.223,114.595,-0.0201168,0.0432471,0.945697,-0.728212,0.452389,0.0262229,-0.0328847,0.0959222,-0.0265418,0,0.8,0,11719,48.903,25.686,12561.2
711619176,0.634774,2.223,114.606,-0.0218681,0.0429015,0.945784,-0.73153,0.458319,0.0261017,0.0442761,0.136639,-0.0234035,0,4.4,0,11719,48.903,25.686,12561.2
711719538,0.634774,2.223,114.614,-0.0114702,0.0413132,0.944733,-0.736896,0.454192,0.0209208,-0.0572638,0.0792436,-0.145442,0,4.4,0,11719,48.903,25.686,12561.2
711820631,0.634774,2.223,114.618,0.137804,0.0307301,0.949018,-0.753843,0.460891,0.064928,0.0116728,0.449349,0.0874467,0,4.4,0,11719,48.903,25.686,12561.2
711922172,0.634774,2.223,114.621,0.284957,0.0260385,0.951938,-0.908427,0.590286,0.0163869,0.210314,2.24528,-0.222322,0,4.4,0,11719,48.903,25.686,12561.2
712022543,0.634774,2.223,114.612,0.377409,0.0262539,0.951977,-1.17628,0.80492,-0.0312823,0.21679,3.36627,1.03814,0,4.4,0,11719,48.903,25.686,12561.2
712122873,0.634774,2.223,114.601,0.421915,0.0278958,0.951996,-1.52452,1.07829,-0.0311311,0.184972,4.04496,1.86684,0,4.4,0,11719,48.903,25.686,12561.2
712223236,0.634774,2.223,114.598,0.433514,0.0308035,0.952167,-1.90497,1.37111,-0.0335436,0.175746,4.34159,2.03162,0,4.4,0,11719,48.903,25.686,12561.2
712323562,0.634774,2.223,114.591,0.400378,0.0352303,0.952077,-2.28652,1.66798,-0.0262411,0.197022,4.26237,2.064,0,4.4,0,11719,48.903,25.686,12561.2
712423930,0.634774,2.223,114.584,0.335584,0.0395445,0.952043,-2.63245,1.93064,0.000248096,0.139052,3.8093,1.65411,0,4.4,0,11719,48.823,26.347,12863.4
712524340,0.634774,2.223,114.576,0.264299,0.0429835,0.951859,-2.89725,2.13509,0.0147132,0.118724,3.04927,0.77444,0,4.4,0,11719,48.823,26.347,12863.4
712624671,0.634773,2.223,114.578,0.200175,0.046991,0.951974,-3.09818,2.28351,0.0250814,0.00979763,2.21129,0.636722,0,4.4,0,11719,48.823,26.347,12863.4
712724962,0.634773,2.223,114.584,0.151395,0.0499997,0.951939,-3.25348,2.39285,0.0389214,-0.0180832,1.70846,0.240608,0,4.4,0,11719,48.823,26.347,12863.4
712825378,0.634773,2.223,114.598,0.115589,0.0515218,0.951645,-3.37329,2.47288,0.0346682,-0.0862535,1.23919,0.0755262,0,4.4,0,11719,48.823,26.347,12863.4
712925779,0.634773,2.223,114.612,0.0862073,0.0504569,0.951305,-3.4615,2.53179,0.0409164,-0.0351347,0.893105,0.0391213,0,4.4,0,11719,48.823,26.347,12863.4
713026083,0.634773,2.223,114.628,0.0670041,0.0509965,0.950659,-3.5364,2.57723,0.036836,-0.121593,0.59608,-0.165865,0,4.4,0,11719,48.823,26.347,12863.4
713126453,0.634773,2.223,114.644,0.0555848,0.0511847,0.950441,-3.57507,2.60591,0.034795,-0.0157916,0.408037,0.014583,0,4.4,0,11719,48.823,26.347,12863.4
713226824,0.634773,2.223,114.648,0.0475425,0.0516316,0.949891,-3.60294,2.62644,0.0296403,-0.0382107,0.355521,-0.283551,0,4.4,0,11719,48.823,26.347,12863.4
713327152,0.634773,2.223,114.652,0.042468,0.0503086,0.949754,-3.62706,2.63545,0.0206494,-0.0435531,0.23931,-0.241074,0,4.4,0,11719,48.823,26.347,12863.4
713427597,0.634773,2.223,114.65,0.0403139,0.0492493,0.949362,-3.64284,2.63799,0.00407424,-0.0864772,0.158917,-0.162464,0,4.4,0,11719,48.843,26.175,12784.7
713529693,0.634773,2.223,114.645,0.0397267,0.0471414,0.949068,-3.6549,2.65316,-0.00916722,0.0733512,0.219648,0.0523759,0,4.4,0,11719,48.843,26.175,12784.7
713630224,0.634773,2.223,114.639,0.0376112,0.0454907,0.948601,-3.65921,2.65779,-0.0123323,0.0160808,0.134565,0.099293,0,2.7,0,11719,48.843,26.175,12784.7
713730633,0.634773,2.223,114.635,0.0129735,0.043714,0.949533,-3.67507,2.65698,-4.32786e-05,0.00529631,0.288302,0.469963,0,2.7,0,11719,48.843,26.175,12784.7
713831044,0.634773,2.223,114.636,-0.100338,0.0412365,0.943996,-3.64713,2.63689,0.0374264,0.0137646,-0.498763,0.207973,0,2.7,0,11719,48.843,26.175,12784.7
713931408,0.634773,2.223,114.641,-0.19131,0.0432259,0.941717,-3.51114,2.53862,0.00641934,-0.0177331,-1.72329,-0.19328,0,2.7,0,11719,48.843,26.175,12784.7
714031723,0.634773,2.223,114.647,-0.230039,0.0439632,0.941706,-3.30967,2.39871,-0.00680615,0.0652316,-2.3354,0.401174,0,2.7,0,11719,48.843,26.175,12784.7
714132155,0.634773,2.223,114.65,-0.22424,0.0442458,0.942886,-3.09564,2.24698,-0.0128385,0.0472158,-2.43189,0.391565,0,2.7,0,11719,48.843,26.175,12784.7
714232515,0.634773,2.223,114.651,-0.19273,0.042665,0.9445,-2.89984,2.09743,-0.0202546,-0.0125784,-2.27924,0.461788,0,2.7,0,11719,48.843,26.175,12784.7
714332889,0.634773,2.223,114.651,-0.152532,0.0414567,0.944847,-2.74658,1.97947,-0.0198435,-0.0456467,-1.77565,0.136952,0,2.7,0,11719,48.843,26.175,12784.7
714433240,0.634773,2.223,114.651,-0.112332,0.0408281,0.945448,-2.61853,1.88484,-0.0295815,-0.023097,-1.38332,0.103816,0,2.7,0,11719,48.801,28.591,13952.7
714533614,0.634772,2.223,114.65,-0.0765007,0.042459,0.945919,-2.51781,1.81661,-0.0222063,0.0421822,-1.01987,0.340645,0,2.7,0,11719,48.801,28.591,13952.7
714633973,0.634772,2.223,114.655,-0.0501698,0.0447216,0.945878,-2.44844,1.76573,-0.0123053,-0.00297864,-0.652271,-0.112793,0,2.7,0,11719,48.801,28.591,13952.7
714734325,0.634772,2.223,114.658,-0.0275667,0.0472214,0.945822,-2.40032,1.72955,-0.0180161,-0.0439284,-0.412106,-0.219855,0,2.7,0,11719,48.801,28.591,13952.7
714834692,0.634772,2.223,114.654,-0.0125177,0.047605,0.946003,-2.37064,1.70703,-0.0262253,-0.00752154,-0.170763,0.0346215,0,2.7,0,11719,48.801,28.591,13952.7
714935038,0.634772,2.223,114.653,-0.00455987,0.0467656,0.945961,-2.3561,1.6888,-0.0133597,-0.0534191,-0.0731585,-0.00546096,0,2.7,0,11719,48.801,28.591,13952.7
715035422,0.634772,2.223,114.653,0.000902972,0.0455751,0.946252,-2.33999,1.68036,-0.0100883,0.0388401,-0.0351652,-0.219344,0,2.7,0,11719,48.801,28.591,13952.7
715135787,0.634772,2.223,114.653,0.00617627,0.0458702,0.946457,-2.33431,1.67095,-0.0129337,-0.015563,0.0592943,-0.0462101,0,2.7,0,11719,48.801,28.591,13952.7
715236216,0.634772,2.223,114.656,0.00871286,0.0456032,0.946301,-2.33181,1.66078,-0.00494067,-0.0376763,-0.0115452,0.0845338,0,2.7,0,11719,48.801,28.591,13952.7
715336555,0.634772,2.223,114.662,0.0113376,0.0447039,0.94639,-2.3381,1.65764,-0.00100032,-0.0236118,0.0852892,0.0021404,0,2.7,0,11719,48.801,28.591,13952.7
715436925,0.634772,2.223,114.664,0.0109763,0.0430869,0.946233,-2.34217,1.65719,-0.00683616,0.0283984,0.0811142,-0.0950096,0,2.7,0,11719,48.801,28.591,13952.7
715537334,0.634772,2.223,114.66,0.00956463,0.0421405,0.946199,-2.35256,1.65856,-0.00349264,-0.0180824,0.125937,-0.0476216,0,2.7,0,11675,48.834,25.636,12519.1
715637764,0.634772,2.223,114.655,0.00559102,0.0409477,0.945787,-2.3605,1.65969,-0.00706503,-0.0439751,0.12672,0.0510174,0,-4.1,0,11675,48.834,25.636,12519.1
715738605,0.634772,2.223,114.656,-0.00974265,0.0390853,0.946892,-2.36912,1.66073,-0.00463048,0.0346367,0.00415684,-0.0838854,0,-4.1,0,11675,48.834,25.636,12519.1
715840085,0.634772,2.223,114.649,-0.160005,0.0295396,0.94193,-2.35461,1.6547,0.0278594,0.0842087,-0.429124,0.16581,0,-4.1,0,11675,48.834,25.636,12519.1
715940457,0.634772,2.223,114.642,-0.306082,0.020722,0.940704,-2.17968,1.55226,-0.00302941,0.234765,-2.17874,0.104374,0,-4.1,0,11675,48.834,25.636,12519.1
716040796,0.634772,2.223,114.636,-0.398239,0.0161729,0.941295,-1.89228,1.37519,-0.0444521,0.272156,-3.25232,1.21223,0,-4.1,0,11675,48.834,25.636,12519.1
716141154,0.634772,2.223,114.625,-0.441747,0.0149848,0.94205,-1.52694,1.15143,-0.0445011,0.373096,-3.90516,1.84898,0,-4.1,0,11675,48.834,25.636,12519.1
716241534,0.634772,2.223,114.611,-0.453914,0.014757,0.94306,-1.13309,0.900111,-0.0406216,0.314586,-4.09492,2.14342,0,-4.1,0,11675,48.834,25.636,12519.1
716341899,0.634772,2.223,114.595,-0.449615,0.0167051,0.942669,-0.733272,0.656669,-0.0320677,0.430706,-4.07869,2.07979,0,-4.1,0,11675,48.834,25.636,12519.1
716442225,0.634772,2.223,114.581,-0.436475,0.0186527,0.942173,-0.345889,0.409899,-0.0257372,0.29848,-4.03112,1.97663,0,-4.1,0,11675,48.834,25.636,12519.1
716542522,0.634772,2.223,114.573,-0.421695,0.0208834,0.94184,0.0225288,0.166253,-0.0154796,0.22935,-3.79632,2.04701,0,-4.1,0,11631,48.831,25.781,12589.1
716642885,0.634772,2.223,114.57,-0.406508,0.0245806,0.940668,0.379484,-0.0637372,0.00448057,0.3157,-3.73461,1.5813,0,-4.1,0,11631,48.831,25.781,12589.1
716743637,0.634772,2.223,114.565,-0.395306,0.030236,0.9391,0.702775,-0.27977,0.0126495,0.197427,-3.30864,1.55062,0,-4.1,0,11631,48.831,25.781,12589.1
716843960,0.634772,2.223,114.567,-0.386403,0.035591,0.937506,1.01328,-0.493067,0.0123515,0.154059,-3.28659,1.43988,0,-4.1,0,11631,48.831,25.781,12589.1
716945138,0.634772,2.223,114.568,-0.379019,0.0413965,0.936087,1.3138,-0.708244,0.0165266,0.0620858,-3.1866,1.35541,0,-4.1,0,11631,48.831,25.781,12589.1
717047366,0.634772,2.223,114.564,-0.373064,0.0466902,0.934592,1.64983,-0.963246,0.0213374,0.0486474,-2.9928,1.32966,0,-4.1,0,11631,48.831,25.781,12589.1
717147720,0.634772,2.223,114.56,-0.369978,0.0513712,0.933218,1.91887,-1.17492,0.0201877,-0.0614752,-2.97495,1.15054,0,-4.1,0,11631,48.831,25.781,12589.1
717248087,0.634772,2.223,114.561,-0.358102,0.0531378,0.933323,2.17261,-1.37971,0.0228918,-0.0647083,-2.85379,1.13393,0,-4.1,0,11631,48.831,25.781,12589.1
717348468,0.634772,2.223,114.564,-0.324752,0.0540831,0.934044,2.40184,-1.57338,0.0245243,-0.0673618,-2.56704,1.05718,0,-4.1,0,11631,48.831,25.781,12589.1
717448824,0.634772,2.223,114.561,-0.287597,0.0534181,0.935214,2.59664,-1.73871,0.0360918,-0.111654,-2.24269,0.763192,0,-4.1,0,11631,48.831,25.781,12589.1
717549178,0.634772,2.223,114.564,-0.252406,0.0525213,0.935808,2.75971,-1.88325,0.0503585,-0.107006,-1.99201,0.382768,0,-4.1,0,11631,48.821,26.074,12729.6
717649572,0.634772,2.223,114.572,-0.220717,0.0513938,0.936566,2.87811,-2.00125,0.0472072,-0.181011,-1.48073,0.416073,0,2.6,0,11631,48.821,26.074,12729.6
717749931,0.634772,2.223,114.581,-0.181545,0.0486689,0.935732,2.97672,-2.09283,0.0515788,-0.0193662,-1.23523,0.559755,0,2.6,0,11631,48.821,26.074,12729.6
717850243,0.634772,2.223,114.589,0.082912,0.0366958,0.946826,3.0305,-2.14482,0.135319,0.0300461,-0.339036,0.585659,0,2.6,0,11631,48.821,26.074,12729.6
717950606,0.634772,2.223,114.606,0.303149,0.0287064,0.950844,2.82143,-1.98096,0.135582,0.182856,3.00012,0.00982684,0,2.6,0,11631,48.821,26.074,12729.6
718050962,0.634772,2.223,114.621,0.436446,0.0289089,0.951529,2.45963,-1.70903,0.0434557,0.164832,4.42214,1.19368,0,2.6,0,11631,48.821,26.074,12729.6
718151329,0.634772,2.223,114.624,0.489336,0.0254725,0.950332,2.00049,-1.3668,0.00270174,0.169618,5.26368,2.10665,0,2.6,0,11631,48.821,26.074,12729.6
718251741,0.634773,2.223,114.631,0.52467,0.021254,0.948513,1.49875,-1.00585,-0.0323063,0.0554619,5.44673,2.66236,0,2.6,0,11631,48.821,26.074,12729.6
718352111,0.634773,2.223,114.637,0.532843,0.012967,0.943495,0.971337,-0.610326,-0.0599387,0.198921,5.58581,2.96369,0,2.6,0,11631,48.821,26.074,12729.6
718452471,0.634773,2.223,114.613,0.524469,0.0120263,0.940835,0.454569,-0.191789,-0.0825611,0.380013,5.47777,3.18251,0,2.6,0,11631,48.821,26.074,12729.6
718552806,0.634773,2.223,114.588,0.505328,0.019457,0.942851,-0.0569228,0.231184,-0.0725216,0.465133,5.35184,3.16286,0,2.6,0,11631,48.719,29.87,14552.4
718653100,0.634772,2.223,114.585,0.443761,0.0322911,0.946147,-0.565153,0.628834,-0.0537984,0.300943,5.23504,2.89372,0,2.6,0,11631,48.719,29.87,14552.4
718753449,0.634772,2.223,114.588,0.347017,0.0454649,0.948248,-0.991039,0.950154,-0.0077065,0.163864,4.27687,1.98367,0,2.6,0,11631,48.719,29.87,14552.4
718853797,0.634772,2.223,114.588,0.250894,0.0530416,0.948933,-1.32173,1.17719,0.00415157,-0.071702,3.27034,1.05356,0,2.6,0,11631,48.719,29.87,14552.4
718954149,0.634772,2.223,114.59,0.166064,0.0609511,0.950137,-1.55657,1.34068,0.017243,-0.0632081,2.28451,0.470667,0,2.6,0,11631,48.719,29.87,14552.4
719054481,0.634772,2.223,114.607,0.0987135,0.0673915,0.950811,-1.73004,1.44362,0.0201532,-0.191477,1.47741,0.293397,0,2.6,0,11631,48.719,29.87,14552.4
719154764,0.634772,2.223,114.621,0.057023,0.0692857,0.950409,-1.84603,1.49399,0.0268056,-0.299422,0.817591,0.140899,0,2.6,0,11631,48.719,29.87,14552.4
719255088,0.634772,2.223,114.621,0.0316192,0.0675686,0.949925,-1.92995,1.52534,0.0373979,-0.253437,0.52898,0.101612,0,2.6,0,11631,48.719,29.87,14552.4
719355492,0.634772,2.223,114.624,0.01762,0.0646686,0.949235,-1.98549,1.5423,0.0190935,-0.210701,0.303291,-0.153207,0,2.6,0,11631,48.719,29.87,14552.4
719455875,0.634772,2.223,114.633,0.0102232,0.0618989,0.948663,-2.02392,1.5487,0.0216217,-0.147355,0.236003,-0.0870144,0,2.6,0,11631,48.719,29.87,14552.4
719556267,0.634772,2.223,114.645,0.00400553,0.0587049,0.948314,-2.06675,1.54339,0.0186202,-0.2886,0.22286,-0.226144,0,2.6,0,11631,48.689,28.033,13649
719658379,0.634772,2.223,114.648,-0.000121697,0.053014,0.948088,-2.0929,1.53965,0.0118718,-0.187439,0.184625,0.00568219,0,2.4,0,11631,48.689,28.033,13649
719759988,0.634772,2.223,114.645,-0.00727639,0.0495599,0.947656,-2.10585,1.53347,0.00831993,-0.105075,0.0803776,-0.0647098,0,2.4,0,11631,48.689,28.033,13649
719860389,0.634772,2.223,114.645,-0.0294594,0.0467036,0.94674,-2.11101,1.52909,0.00359787,-0.0437179,-0.0365809,0.0495299,0,2.4,0,11631,48.689,28.033,13649
719960748,0.634772,2.223,114.645,-0.0307367,0.0456311,0.946651,-2.09576,1.50772,-0.00527507,-0.105225,-0.132632,-0.0579652,0,2.4,0,11631,48.689,28.033,13649
720061092,0.634772,2.223,114.635,-0.0261323,0.0433851,0.946528,-2.07561,1.48201,-0.00866711,-0.122777,-0.151704,0.164705,0,2.4,0,11631,48.689,28.033,13649
720161430,0.634772,2.223,114.623,-0.0184269,0.0418996,0.946616,-2.05569,1.46083,-0.00752421,-0.0488927,-0.129877,0.0204163,0,2.4,0,11631,48.689,28.033,13649
720261800,0.634772,2.223,114.623,-0.0122007,0.0405293,0.946791,-2.03378,1.45498,-0.0110224,0.0595488,-0.040075,0.150956,0,2.4,0,11631,48.689,28.033,13649
720362179,0.634772,2.223,114.625,-0.0077454,0.0407149,0.946418,-2.02281,1.44553,-0.00361131,-0.0251502,0.0359952,0.0745536,0,2.4,0,11631,48.689,28.033,13649
720464483,0.634772,2.223,114.62,-0.00458289,0.0399089,0.946314,-2.01526,1.44314,-0.00750383,0.0545474,0.075421,-0.160227,0,2.4,0,11631,48.689,28.033,13649
720570653,0.634772,2.223,114.613,0.0014804,0.0401933,0.946661,-2.00363,1.43956,-0.00441294,0.0641303,0.122036,-0.0902581,0,2.4,0,11631,48.689,28.033,13649
720670995,0.634772,2.223,114.612,0.00386089,0.0406443,0.946388,-2.0005,1.44561,0.000106083,0.0716005,0.158821,0.0510877,0,2.4,0,11631,48.707,28.423,13844
720771364,0.634772,2.223,114.609,0.00470042,0.0406757,0.9464,-2.00273,1.44706,-0.00622493,0.0181813,0.191004,0.077608,0,2.4,0,11631,48.707,28.423,13844
720871731,0.634772,2.223,114.602,0.00341798,0.0395383,0.946372,-2.00615,1.44878,-0.000340054,0.0263621,0.172521,0.129237,0,2.4,0,11631,48.707,28.423,13844
720972105,0.634772,2.223,114.602,0.00254441,0.0393413,0.946507,-2.00661,1.44813,0.00784218,-0.013742,0.106051,0.0278932,0,2.4,0,11631,48.707,28.423,13844
721072538,0.634772,2.223,114.605,0.00399759,0.0391871,0.9465,-1.99604,1.45183,0.0120499,0.102064,0.0734701,0.186003,0,2.4,0,11631,48.707,28.423,13844
721173913,0.634772,2.223,114.605,0.00480022,0.0401444,0.946583,-2.00673,1.45212,0.00722036,-0.076084,0.237509,-0.102076,0,2.4,0,11631,48.707,28.423,13844
721274795,0.634772,2.223,114.606,0.00452588,0.0404996,0.946422,-2.01012,1.45259,0.00912364,0.00422014,0.173444,-0.0339906,0,2.4,0,11631,48.707,28.423,13844
721375166,0.634772,2.223,114.608,0.00308911,0.0402148,0.946364,-2.01503,1.45515,0.00802066,-0.0223431,0.14217,-0.127292,0,2.4,0,11631,48.707,28.423,13844
721475517,0.634772,2.223,114.609,0.0028677,0.0381371,0.946309,-2.01704,1.45588,0.0100442,0.0431493,0.112466,0.063686,0,2.4,0,11631,48.707,28.423,13844
721575870,0.634772,2.223,114.606,0.00237848,0.0379808,0.946433,-2.02374,1.46186,0.00150202,0.0231587,0.200341,-0.039515,0,2.4,0,11631,48.707,28.423,13844
721676331,0.634772,2.223,114.607,0.00312085,0.0382289,0.946354,-2.02198,1.46194,0.00999655,0.0158885,0.0938266,0.115746,0,5,0,11587,48.751,27.516,13414.3
721776668,0.634772,2.223,114.613,0.0343235,0.0389099,0.944886,-2.02611,1.46615,0.0114539,0.00730718,0.0503322,0.318428,0,5,0,11587,48.751,27.516,13414.3
721878615,0.634771,2.223,114.619,0.184827,0.0333902,0.950345,-2.06314,1.49592,0.0458182,0.0344606,0.843146,-0.145334,0,5,0,11587,48.751,27.516,13414.3
721984571,0.634771,2.223,114.629,0.314816,0.0318456,0.952326,-2.23971,1.62671,-0.0126201,0.0572378,2.47152,0.0436889,0,5,0,11587,48.751,27.516,13414.3
722089697,0.634771,2.223,114.631,0.383302,0.0310835,0.952208,-2.59438,1.88904,-0.0502904,0.0585346,3.65358,1.30003,0,5,0,11587,48.751,27.516,13414.3
722190083,0.634771,2.223,114.631,0.370124,0.0292027,0.950124,-2.94351,2.14177,-0.0345295,0.0784048,3.79358,1.76015,0,5,0,11587,48.751,27.516,13414.3
722290440,0.634771,2.223,114.628,0.319537,0.0306638,0.949773,-3.24417,2.37171,-0.00282058,0.0969813,3.40199,1.35523,0,5,0,11587,48.751,27.516,13414.3
722390767,0.634771,2.223,114.631,0.256445,0.0351656,0.950042,-3.47894,2.54699,0.0104863,0.027144,2.71469,0.737625,0,5,0,11587,48.751,27.516,13414.3
722491058,0.634771,2.223,114.634,0.198326,0.0370667,0.950144,-3.65927,2.67726,0.0153079,-0.0304746,2.0719,0.272422,0,5,0,11587,48.751,27.516,13414.3
722591410,0.634771,2.223,114.652,0.152661,0.0386799,0.950063,-3.79787,2.7792,0.0304226,0.0272636,1.54325,0.245254,0,5,0,11587,48.751,27.516,13414.3
722693238,0.634771,2.223,114.67,0.118524,0.041598,0.94972,-3.89249,2.84896,0.0299744,-0.00163589,1.07633,0.0329191,0,5,0,11587,48.799,25.172,12283.7
722795720,0.634771,2.223,114.669,0.0906351,0.0411452,0.949463,-3.96459,2.91038,0.0169062,0.0811334,0.814471,-0.199934,0,5,0,11587,48.799,25.172,12283.7
722901736,0.634771,2.223,114.671,0.0721463,0.0405746,0.949147,-4.01784,2.9525,0.0119658,0.00147754,0.541351,0.00135136,0,5,0,11587,48.799,25.172,12283.7
723009620,0.634771,2.223,114.676,0.0581378,0.0409638,0.948781,-4.05926,2.9902,0.00437817,0.0201595,0.411268,-0.0307878,0,5,0,11587,48.799,25.172,12283.7
723110957,0.634771,2.223,114.68,0.0476999,0.0406242,0.948425,-4.08658,3.01354,0.00259892,0.018817,0.289378,-0.0347549,0,5,0,11587,48.799,25.172,12283.7
723211354,0.634771,2.223,114.674,0.0423412,0.0403066,0.948269,-4.10019,3.03019,-0.0125288,0.0360496,0.155982,-0.0858008,0,5,0,11587,48.799,25.172,12283.7
723311728,0.634771,2.223,114.665,0.0385493,0.0419874,0.948139,-4.10281,3.04639,-0.035412,0.0940418,0.126251,-0.786166,0,5,0,11587,48.799,25.172,12283.7
723412105,0.634771,2.223,114.654,0.0363221,0.0426073,0.94744,-4.11282,3.05382,-0.0294259,-0.038488,0.146888,0.271807,0,5,0,11587,48.799,25.172,12283.7
723512461,0.634771,2.223,114.64,0.0357069,0.0443384,0.947117,-4.11146,3.06798,-0.0232935,0.0753314,0.115236,0.147604,0,5,0,11587,48.799,25.172,12283.7
723612816,0.63477,2.223,114.627,0.0366634,0.0462887,0.947137,-4.11624,3.07682,-0.0256059,-0.00382221,0.165995,-0.0455599,0,5,0,11587,48.799,25.172,12283.7
723713262,0.63477,2.223,114.615,0.0375594,0.0465979,0.94731,-4.1243,3.07819,-0.031683,0.0231238,0.131304,0.181465,0,3.1,0,11587,48.784,25.954,12661.4
723813615,0.63477,2.223,114.612,0.00718955,0.0468325,0.948505,-4.1266,3.08621,-0.0194671,0.0611535,0.176517,0.482655,0,3.1,0,11587,48.784,25.954,12661.4
723913991,0.63477,2.223,114.619,-0.1314,0.0478826,0.942147,-4.09299,3.05279,0.0312399,-0.034887,-0.646004,0.406938,0,3.1,0,11587,48.784,25.954,12661.4
724014367,0.63477,2.223,114.622,-0.22687,0.0477034,0.939715,-3.92027,2.92868,0.00809488,-0.0153731,-2.16475,-0.140416,0,3.1,0,11587,48.784,25.954,12661.4
724114740,0.63477,2.223,114.625,-0.259788,0.0460009,0.940412,-3.69082,2.75496,-0.0163939,-0.0233643,-2.74254,0.581001,0,3.1,0,11587,48.784,25.954,12661.4
724215124,0.63477,2.223,114.634,-0.24591,0.0466728,0.941475,-3.44535,2.56975,-0.00816883,-0.0661756,-2.79394,0.792422,0,3.1,0,11587,48.784,25.954,12661.4
724315470,0.63477,2.223,114.645,-0.204697,0.0427463,0.943314,-3.22372,2.39541,-0.0120327,-0.0327708,-2.58652,0.303939,0,3.1,0,11587,48.784,25.954,12661.4
724422823,0.63477,2.223,114.644,-0.153415,0.0421053,0.943533,-3.04746,2.26609,-0.0218064,-0.00924284,-1.93321,0.286945,0,3.1,0,11587,48.784,25.954,12661.4
724530856,0.63477,2.223,114.645,-0.106355,0.0410188,0.94456,-2.89083,2.146,-0.00839319,-0.0216116,-1.41017,0.121096,0,3.1,0,11587,48.784,25.954,12661.4
724631219,0.63477,2.223,114.659,-0.0710466,0.0418892,0.944471,-2.79809,2.07395,-0.0100287,0.00135667,-0.992611,-0.0426275,0,3.1,0,11587,48.784,25.954,12661.4
724731538,0.63477,2.223,114.673,-0.0445094,0.0456851,0.945164,-2.73374,2.0281,-0.0165426,0.0548164,-0.582231,0.000297343,0,3.1,0,11587,48.765,26.578,12960.8
724831897,0.63477,2.223,114.68,-0.0264173,0.0485298,0.945245,-2.68739,1.99164,-0.0250888,-0.00400967,-0.431978,-0.121287,0,3.1,0,11587,48.765,26.578,12960.8
724932354,0.63477,2.223,114.685,-0.0117727,0.0504152,0.945511,-2.66279,1.96241,-0.0171987,-0.074282,-0.166822,-0.135714,0,3.1,0,11587,48.765,26.578,12960.8
725032727,0.63477,2.223,114.683,-0.00473911,0.0493044,0.94544,-2.65423,1.93488,-0.0226556,-0.142766,-0.104727,0.0611862,0,3.1,0,11587,48.765,26.578,12960.8
725133098,0.63477,2.223,114.68,-0.000943658,0.0472555,0.945604,-2.64178,1.91472,-0.0156928,-0.0689297,-0.0880363,0.117102,0,3.1,0,11587,48.765,26.578,12960.8
725233448,0.63477,2.223,114.675,-0.000529028,0.0417824,0.94544,-2.64012,1.89841,-0.0184803,-0.080797,-0.0331422,-0.188589,0,3.1,0,11587,48.765,26.578,12960.8
725333784,0.63477,2.223,114.674,-9.37925e-05,0.0385909,0.945388,-2.6317,1.88857,-0.0223285,0.00747745,-0.0838271,0.0443796,0,3.1,0,11587,48.765,26.578,12960.8
725434134,0.63477,2.223,114.672,0.00266183,0.0387448,0.945804,-2.62772,1.88159,-0.0225526,0.0095163,-0.0129368,-0.0867509,0,3.1,0,11587,48.765,26.578,12960.8
725534493,0.63477,2.223,114.666,0.00694457,0.0397269,0.946019,-2.62767,1.8796,-0.0268058,0.0604052,0.00751504,0.0967665,0,3.1,0,11587,48.765,26.578,12960.8
725635204,0.634769,2.223,114.667,0.00850109,0.0407583,0.946039,-2.63003,1.87719,-0.0220405,0.0249327,0.0116404,0.129565,0,3.1,0,11587,48.765,26.578,12960.8
725737603,0.634769,2.223,114.671,0.00541363,0.0406664,0.946018,-2.64383,1.88321,-0.0216983,0.0257081,0.12462,0.101874,0,-3.8,0,11587,48.788,24.944,12169.7
725837984,0.634769,2.223,114.672,-0.0167464,0.0400632,0.947206,-2.64965,1.87863,-0.0239314,-0.0397983,0.00717531,0.0742426,0,-3.8,0,11587,48.788,24.944,12169.7
725938349,0.634769,2.223,114.671,-0.169156,0.0306074,0.941959,-2.62712,1.85954,0.016959,0.0207634,-0.540698,0.381,0,-3.8,0,11587,48.788,24.944,12169.7
726038707,0.634769,2.223,114.675,-0.309629,0.0223165,0.940604,-2.44691,1.74418,-0.00620865,0.163288,-2.32888,0.292655,0,-3.8,0,11587,48.788,24.944,12169.7
726139060,0.634769,2.223,114.674,-0.398339,0.0173176,0.941408,-2.16104,1.55902,-0.0468258,0.205226,-3.35582,1.05652,0,-3.8,0,11587,48.788,24.944,12169.7
726239362,0.634769,2.223,114.669,-0.439405,0.0151139,0.942326,-1.79949,1.31128,-0.0628792,0.198125,-4.09097,1.69528,0,-3.8,0,11587,48.788,24.944,12169.7
726339756,0.634769,2.223,114.663,-0.44892,0.0146275,0.942451,-1.40461,1.04634,-0.0674185,0.221343,-4.18912,2.13572,0,-3.8,0,11587,48.788,24.944,12169.7
726440119,0.634769,2.223,114.649,-0.442682,0.0157016,0.941594,-1.01041,0.784501,-0.0585164,0.215424,-4.15653,2.08793,0,-3.8,0,11587,48.788,24.944,12169.7
726540424,0.634769,2.223,114.637,-0.432646,0.0193101,0.940045,-0.61629,0.529799,-0.047214,0.276651,-4.11746,2.04072,0,-3.8,0,11587,48.788,24.944,12169.7
726640742,0.634769,2.223,114.634,-0.423735,0.0222033,0.939318,-0.247569,0.284954,-0.0346527,0.224974,-3.82794,1.96683,0,-3.8,0,11587,48.788,24.944,12169.7
726741098,0.634769,2.223,114.637,-0.409045,0.0239118,0.939115,0.104394,0.0430488,-0.0181261,0.152125,-3.69054,1.78221,0,-3.8,0,11587,48.788,24.944,12169.7
726841447,0.634769,2.223,114.641,-0.397122,0.0259289,0.938534,0.436833,-0.180642,-0.00974821,0.214631,-3.51895,1.56891,0,-3.8,0,11587,48.793,25.368,12377.8
726941812,0.634769,2.223,114.649,-0.386883,0.0299636,0.937557,0.756815,-0.398878,-0.00694429,0.138593,-3.3338,1.48868,0,-3.8,0,11587,48.793,25.368,12377.8
727042165,0.634769,2.223,114.657,-0.378915,0.0342376,0.936293,1.05532,-0.616968,-0.00251491,0.0230071,-3.32484,1.13617,0,-3.8,0,11587,48.793,25.368,12377.8
727142497,0.634769,2.223,114.669,-0.373463,0.0367036,0.935757,1.34006,-0.82418,0.00421172,0.0506037,-3.12485,1.22776,0,-3.8,0,11587,48.793,25.368,12377.8
727242863,0.634769,2.223,114.67,-0.36921,0.040347,0.934811,1.61382,-1.02997,0.000676738,-0.00430063,-3.13576,0.939055,0,-3.8,0,11587,48.793,25.368,12377.8
727343212,0.634769,2.223,114.667,-0.360998,0.0428346,0.934706,1.87125,-1.23494,-0.00991144,-0.165132,-2.91459,1.15655,0,-3.8,0,11587,48.793,25.368,12377.8
727443568,0.634769,2.223,114.671,-0.32897,0.0428327,0.935816,2.12654,-1.42791,-0.00722842,0.0120138,-2.82815,1.04113,0,-3.8,0,11587,48.793,25.368,12377.8
727543934,0.634769,2.223,114.675,-0.291085,0.043774,0.936401,2.37983,-1.62536,-0.00416378,-0.0557649,-2.36093,0.637296,0,-3.8,0,11587,48.793,25.368,12377.8
727644327,0.634769,2.223,114.677,-0.254881,0.0437567,0.93677,2.53895,-1.75289,-0.00349383,-0.0258019,-1.85654,0.493474,0,-3.8,0,11587,48.793,25.368,12377.8
727744721,0.63477,2.223,114.681,-0.222795,0.0445893,0.937585,2.67335,-1.86282,-0.0054491,-0.0513417,-1.60764,0.287696,0,-4.4,0,11587,48.797,25.358,12373.9
727845085,0.63477,2.223,114.688,-0.209484,0.0450295,0.938199,2.75748,-1.93791,-0.00976654,-0.0923271,-1.32993,0.365944,0,-4.4,0,11587,48.797,25.358,12373.9
727945446,0.63477,2.223,114.696,-0.227023,0.0423276,0.937922,2.86887,-2.03663,-0.0021112,-0.040041,-1.35715,-0.104198,0,-4.4,0,11587,48.797,25.358,12373.9
728045782,0.63477,2.223,114.698,-0.239339,0.0397879,0.937758,2.97531,-2.12677,-0.0388984,-0.0532709,-1.43146,0.100085,0,-4.4,0,11587,48.797,25.358,12373.9
728146140,0.63477,2.223,114.704,-0.23921,0.038174,0.93831,3.0903,-2.22662,-0.0276401,-0.0596703,-1.51122,0.316703,0,-4.4,0,11587,48.797,25.358,12373.9
728246512,0.63477,2.223,114.71,-0.227871,0.0374202,0.938818,3.20851,-2.30886,-0.0294136,0.0745568,-1.44044,0.311652,0,-4.4,0,11587,48.797,25.358,12373.9
728346873,0.63477,2.223,114.718,-0.212801,0.0382989,0.939072,3.30612,-2.39162,-0.0233888,-0.0126474,-1.29035,0.392928,0,-4.4,0,11587,48.797,25.358,12373.9
728447189,0.63477,2.223,114.719,-0.194632,0.0371586,0.940018,3.3882,-2.45934,-0.0223505,0.0107901,-1.13019,0.0429743,0,-4.4,0,11587,48.797,25.358,12373.9
728547505,0.63477,2.223,114.721,-0.180214,0.0362192,0.940446,3.44724,-2.50974,-0.0290611,0.00152948,-0.824876,0.247925,0,-4.4,0,11587,48.797,25.358,12373.9
728647834,0.63477,2.223,114.727,-0.170079,0.0360086,0.941182,3.49615,-2.55024,-0.0289049,0.00961495,-0.767124,-0.0669888,0,-4.4,0,11587,48.797,25.358,12373.9
728748209,0.63477,2.223,114.732,-0.160882,0.0340199,0.941179,3.54211,-2.58689,-0.0290914,0.0374547,-0.706477,0.0619105,0,-4.4,0,11587,48.797,25.358,12373.9
728848544,0.63477,2.223,114.738,-0.150799,0.0323469,0.941108,3.5849,-2.6086,-0.0317117,0.105178,-0.581799,-0.0848604,0,-4.4,0,11587,48.628,28.729,13970.3
728948911,0.63477,2.223,114.738,-0.14467,0.0309123,0.941695,3.60758,-2.63416,-0.0424274,-0.0159387,-0.409811,0.249258,0,-4.4,0,11587,48.628,28.729,13970.3
729049283,0.63477,2.223,114.737,-0.141283,0.0316258,0.941961,3.63447,-2.65038,-0.0438995,0.0640595,-0.438072,-0.0618922,0,-4.4,0,11587,48.628,28.729,13970.3
729149641,0.63477,2.223,114.736,-0.138744,0.0336948,0.941646,3.66547,-2.65867,-0.0539338,0.143625,-0.431714,-0.0792881,0,-4.4,0,11587,48.628,28.729,13970.3
729249989,0.63477,2.223,114.731,-0.135528,0.0348047,0.94169,3.69236,-2.67952,-0.0604638,0.029249,-0.381806,0.119875,0,-4.4,0,11587,48.628,28.729,13970.3
729350284,0.63477,2.223,114.73,-0.130036,0.0356524,0.941819,3.70931,-2.69174,-0.06172,0.0351722,-0.238971,-0.0255419,0,-4.4,0,11587,48.628,28.729,13970.3
729450698,0.63477,2.223,114.731,-0.124377,0.0369476,0.941769,3.72618,-2.70246,-0.0570332,0.0239623,-0.263543,0.0434157,0,-4.4,0,11587,48.628,28.729,13970.3
729551130,0.63477,2.223,114.733,-0.121736,0.0347124,0.942054,3.73424,-2.7051,-0.059012,0.0626371,-0.171543,-0.189644,0,-4.4,0,11587,48.628,28.729,13970.3
729651496,0.634771,2.223,114.734,-0.122119,0.0369164,0.941995,3.73626,-2.70179,-0.0557329,0.0387533,-0.108428,-0.00127748,0,-4.4,0,11587,48.628,28.729,13970.3
729751904,0.634771,2.223,114.733,-0.121141,0.0371466,0.942057,3.74386,-2.71297,-0.0486998,-0.00287807,-0.139622,0.0324217,0,-0.7,0,11587,48.628,28.729,13970.3
729852336,0.634771,2.223,114.734,-0.103692,0.0345222,0.94036,3.75343,-2.72497,-0.0499477,-0.04256,-0.18905,-0.0165596,0,-0.7,0,11587,48.723,26.325,12826.3
729952702,0.634771,2.223,114.736,0.10184,0.0299473,0.946615,3.75239,-2.73079,0.0282905,-0.0129671,0.163507,1.00313,0,-0.7,0,11587,48.723,26.325,12826.3
730053070,0.634771,2.223,114.744,0.306157,0.0325405,0.951577,3.53229,-2.5587,0.0663593,0.095103,3.06358,0.0105391,0,-0.7,0,11587,48.723,26.325,12826.3
730153388,0.634771,2.223,114.755,0.416736,0.0402714,0.954309,3.17928,-2.31125,-0.032329,-0.0923088,4.29121,1.20319,0,-0.7,0,11587,48.723,26.325,12826.3
730253754,0.634771,2.223,114.755,0.441899,0.044252,0.95594,2.72813,-1.9991,-0.0416435,-0.0503446,4.96385,1.98511,0,-0.7,0,11587,48.723,26.325,12826.3
730354115,0.634771,2.223,114.751,0.410629,0.0504162,0.957213,2.30398,-1.70535,-0.105616,-0.0663427,4.79228,1.68207,0,-0.7,0,11587,48.723,26.325,12826.3
730454467,0.634771,2.223,114.729,0.356468,0.0500422,0.953998,1.8976,-1.44591,-0.140257,-0.243532,4.36973,1.69552,0,-0.7,0,11587,48.723,26.325,12826.3
730554806,0.634771,2.223,114.7,0.285779,0.0283342,0.946,1.53472,-1.2135,-0.137282,-0.194497,3.7586,1.83263,0,-0.7,0,11587,48.723,26.325,12826.3
730655160,0.634771,2.223,114.687,0.204048,0.00632205,0.940725,1.25903,-0.99878,-0.124391,0.115747,3.09158,0.956456,0,-0.7,0,11587,48.723,26.325,12826.3
730755469,0.634771,2.223,114.682,0.124757,-0.00513687,0.940018,1.06816,-0.806361,-0.100404,0.40008,2.39452,0.403622,0,-0.7,0,11587,48.723,26.325,12826.3
730855786,0.634771,2.223,114.672,0.0579671,-0.00092561,0.942405,0.949574,-0.660321,-0.0707048,0.461786,1.52673,0.374054,0,-0.7,0,11587,48.732,26.325,12828.7
730956132,0.634771,2.223,114.662,0.00964268,0.0122749,0.944614,0.8789,-0.557446,-0.0477471,0.370232,0.94999,0.164084,0,-0.7,0,11587,48.732,26.325,12828.7
731056469,0.634771,2.223,114.661,-0.0240506,0.0231917,0.945693,0.821563,-0.500622,-0.0358966,0.119487,0.59887,0.0285876,0,-0.7,0,11587,48.732,26.325,12828.7
731156812,0.634771,2.223,114.672,-0.0434376,0.0310666,0.945693,0.792553,-0.469235,-0.0189873,0.0446344,0.300981,-0.0940078,0,-0.7,0,11587,48.732,26.325,12828.7
731257158,0.634771,2.223,114.669,-0.0538583,0.0364642,0.945569,0.776014,-0.456898,-0.0176444,-0.0094323,0.11177,0.195909,0,-0.7,0,11587,48.732,26.325,12828.7
731357561,0.634771,2.223,114.673,-0.0575157,0.0393834,0.945203,0.76854,-0.45855,-0.00789273,-0.0736754,0.0145021,0.0634097,0,-0.7,0,11587,48.732,26.325,12828.7
731457917,0.634771,2.223,114.682,-0.0599607,0.0405009,0.94517,0.760449,-0.457863,-0.00598473,-0.0905006,0.0237801,-0.114154,0,-0.7,0,11587,48.732,26.325,12828.7
731558255,0.634771,2.223,114.691,-0.058116,0.0419486,0.944787,0.761479,-0.463213,-0.00594892,-0.137372,0.0377323,-0.146729,0,-0.7,0,11587,48.732,26.325,12828.7
731658654,0.634771,2.223,114.695,-0.0555205,0.0413668,0.945249,0.757026,-0.473413,-0.00499436,-0.154991,0.0602575,-0.0564236,0,-0.7,0,11587,48.732,26.325,12828.7
731759038,0.634771,2.223,114.697,-0.0508245,0.0398342,0.94529,0.756718,-0.479761,-0.0123614,-0.0906565,0.0629271,-0.0528285,0,2.3,0,11587,48.732,26.325,12828.7
731859395,0.634771,2.223,114.697,-0.0310105,0.0406711,0.943627,0.762157,-0.486033,-0.00374361,-0.0326113,-0.0109047,0.452836,0,2.3,0,11587,48.848,23.558,11507.6
731959744,0.634771,2.223,114.695,0.139947,0.0371777,0.948765,0.72206,-0.45925,0.0402855,-0.0528586,1.01081,-0.0145001,0,2.3,0,11587,48.848,23.558,11507.6
732060093,0.634771,2.223,114.694,0.292864,0.034348,0.95232,0.519064,-0.308669,-0.0321847,0.000209654,2.88602,0.11265,0,2.3,0,11587,48.848,23.558,11507.6
732160394,0.634771,2.223,114.69,0.390609,0.0301399,0.951776,0.209598,-0.0761495,-0.0739022,0.0397221,3.93957,1.22897,0,2.3,0,11587,48.848,23.558,11507.6
732260755,0.634771,2.223,114.683,0.416924,0.0305133,0.951269,-0.091211,0.142485,-0.0958859,-0.00712079,4.4247,1.67728,0,2.3,0,11587,48.848,23.558,11507.6
732361091,0.634771,2.223,114.667,0.374875,0.0318352,0.94997,-0.558103,0.485238,-0.0959096,-0.0107251,4.40413,2.05256,0,2.3,0,11587,48.848,23.558,11507.6
732461380,0.634771,2.223,114.636,0.309388,0.0354303,0.950211,-0.887783,0.728778,-0.0766263,0.0248296,3.71952,1.74504,0,2.3,0,11587,48.848,23.558,11507.6
732561740,0.634771,2.223,114.607,0.229422,0.0412051,0.950226,-1.15181,0.917587,-0.0435512,-0.0705257,3.04028,1.02442,0,2.3,0,11587,48.848,23.558,11507.6
732662105,0.634771,2.223,114.596,0.158173,0.0449108,0.950447,-1.34012,1.04863,-0.0323715,-0.0880706,2.11886,0.705135,0,2.3,0,11587,48.848,23.558,11507.6
732762454,0.634771,2.223,114.587,0.106067,0.0483538,0.950549,-1.47087,1.13747,-0.0178504,-0.0889411,1.44032,0.545244,0,2.3,0,11587,48.848,23.558,11507.6
732862803,0.634771,2.223,114.587,0.0704956,0.0491651,0.949999,-1.56691,1.199,-0.00503186,-0.0941434,1.03273,0.254395,0,2.3,0,11587,48.848,23.558,11507.6
732963138,0.634771,2.223,114.585,0.0470626,0.0488199,0.949589,-1.6442,1.24808,0.00324808,-0.147441,0.767181,0.168473,0,2.3,0,11587,48.848,23.732,11592.6
733063491,0.634771,2.223,114.584,0.0303509,0.0483612,0.949127,-1.69938,1.27501,0.00884808,-0.148568,0.524261,0.179279,0,2.3,0,11587,48.848,23.732,11592.6
733163839,0.634771,2.223,114.585,0.0219716,0.0464376,0.948861,-1.74504,1.29073,0.0162197,-0.169131,0.452995,0.0425396,0,2.3,0,11587,48.848,23.732,11592.6
733264205,0.634771,2.223,114.593,0.0171246,0.0429022,0.948371,-1.78376,1.30913,0.0206362,-0.112653,0.444918,-0.143872,0,2.3,0,11587,48.848,23.732,11592.6
733364542,0.634771,2.223,114.595,0.0138577,0.0415856,0.948047,-1.81777,1.32154,0.0255553,-0.182094,0.358103,-0.0193162,0,2.3,0,11587,48.848,23.732,11592.6
733464903,0.634771,2.223,114.598,0.0100575,0.0392807,0.947858,-1.83881,1.32912,0.0169495,-0.100418,0.247237,-0.00546193,0,2.3,0,11587,48.848,23.732,11592.6
733565250,0.634771,2.223,114.603,0.00943993,0.0380346,0.94757,-1.85614,1.33478,0.0235579,-0.099186,0.24801,0.00689645,0,2.3,0,11587,48.848,23.732,11592.6
733665947,0.634771,2.223,114.602,0.00724902,0.0359439,0.947441,-1.87875,1.34049,0.0116501,-0.0924693,0.285311,-0.0521086,0,2.3,0,11587,48.848,23.732,11592.6
733766351,0.634771,2.223,114.601,0.00491112,0.0345086,0.947328,-1.88834,1.35301,0.0189913,0.0398972,0.21512,-0.0743401,0,4.3,0,11587,48.848,23.732,11592.6
733867912,0.634771,2.223,114.608,0.0403615,0.0357205,0.945859,-1.89816,1.35809,0.0202086,-0.0638579,0.137144,0.352575,0,4.3,0,11587,48.848,23.732,11592.6
733968328,0.634771,2.223,114.608,0.186233,0.0337535,0.951331,-1.9465,1.39657,0.0453215,-0.0166328,1.05308,-0.0636301,0,4.3,0,11587,48.848,23.732,11592.6
734068679,0.634771,2.223,114.612,0.280119,0.0337044,0.952881,-2.12919,1.52671,-0.00895065,-0.0634432,2.49336,0.156815,0,4.3,0,11587,48.848,23.732,11592.6
734169039,0.634771,2.223,114.614,0.310832,0.0319568,0.952421,-2.37136,1.70859,-0.0179904,0.051581,2.95235,1.11882,0,4.3,0,11587,48.848,23.732,11592.6
734269390,0.634771,2.223,114.615,0.291917,0.0314219,0.951412,-2.62968,1.90425,-0.00242688,0.0713083,3.048,1.1736,0,4.3,0,11587,48.848,23.732,11592.6
734369779,0.634771,2.223,114.618,0.245285,0.0315941,0.950628,-2.86361,2.07036,0.00160933,-0.00658157,2.65538,0.999633,0,4.3,0,11587,48.848,23.732,11592.6
734470151,0.634771,2.223,114.615,0.197591,0.031375,0.950023,-3.04755,2.21008,0.0175217,0.0478663,2.23435,0.466561,0,4.3,0,11543,48.707,24.485,11925.9
734570534,0.634771,2.223,114.612,0.156794,0.0320099,0.94965,-3.19082,2.31863,0.0169993,0.0405551,1.78413,0.240885,0,4.3,0,11543,48.707,24.485,11925.9
734671818,0.63477,2.223,114.628,0.122638,0.0313231,0.949158,-3.30567,2.39382,0.0257521,-0.0803227,1.36685,0.0513449,0,4.3,0,11543,48.707,24.485,11925.9
734773717,0.63477,2.223,114.642,0.0964286,0.0313242,0.948783,-3.37953,2.45688,0.0134516,0.0103097,0.923557,0.0450381,0,4.3,0,11543,48.707,24.485,11925.9
734874096,0.63477,2.223,114.648,0.0790912,0.0323848,0.948565,-3.44062,2.50434,0.0133441,-0.0251465,0.778121,-0.152827,0,4.3,0,11543,48.707,24.485,11925.9
734974441,0.63477,2.223,114.653,0.0648098,0.0326132,0.948183,-3.48901,2.55188,0.00863379,0.0717484,0.655841,-0.0984911,0,4.3,0,11543,48.707,24.485,11925.9
735074796,0.63477,2.223,114.655,0.0531902,0.0336644,0.947965,-3.52152,2.59057,0.00852982,0.0576683,0.504279,-0.11421,0,4.3,0,11543,48.707,24.485,11925.9
735175150,0.63477,2.223,114.665,0.0441247,0.0333739,0.947708,-3.54803,2.61274,0.0108519,-0.0217484,0.373092,-0.126139,0,4.3,0,11543,48.707,24.485,11925.9
735275501,0.63477,2.223,114.668,0.0368719,0.0347197,0.947365,-3.56111,2.63375,0.00645294,0.0392896,0.224685,-0.0529328,0,4.3,0,11543,48.707,24.485,11925.9
735375867,0.63477,2.223,114.67,0.0321852,0.0353927,0.947191,-3.57453,2.63992,-0.0031385,-0.0756515,0.20471,-0.0940473,0,4.3,0,11543,48.707,24.485,11925.9
735476285,0.63477,2.223,114.67,0.0286806,0.0352089,0.947475,-3.58228,2.65261,-0.0045332,0.0308673,0.219886,0.108984,0,4.3,0,11543,48.703,26.329,12823
735576584,0.63477,2.223,114.669,0.0266514,0.0363195,0.947643,-3.57438,2.65871,-0.00154525,0.00276462,0.0618168,-0.0327793,0,4.3,0,11543,48.703,26.329,12823
735676950,0.63477,2.223,114.66,0.0284264,0.0373659,0.947567,-3.57558,2.66034,-0.0151389,-0.0288563,0.131512,0.113805,0,4.3,0,11543,48.703,26.329,12823
735777364,0.63477,2.223,114.648,0.0295567,0.0372402,0.947998,-3.58648,2.66108,-0.0185348,-0.0914769,0.204452,0.110424,0,4.6,0,11543,48.703,26.329,12823
735877721,0.63477,2.223,114.639,0.0397303,0.0371171,0.94716,-3.58747,2.66599,-0.019581,-0.00318433,0.139997,0.198243,0,4.6,0,11543,48.703,26.329,12823
735978081,0.63477,2.223,114.631,0.0659785,0.0364064,0.947715,-3.61072,2.6899,-0.0167367,-0.0428554,0.496205,-0.187739,0,4.6,0,11543,48.703,26.329,12823
736078439,0.63477,2.223,114.622,0.0746479,0.0380298,0.947764,-3.63524,2.71428,-0.0327447,0.0300576,0.477754,0.0161303,0,4.6,0,11543,48.703,26.329,12823
736178845,0.63477,2.223,114.609,0.0781351,0.0384212,0.947877,-3.68586,2.74528,-0.0264552,-0.0323363,0.561094,0.27524,0,4.6,0,11543,48.703,26.329,12823
736279168,0.63477,2.223,114.605,0.0755973,0.0396267,0.948234,-3.72706,2.77236,-0.010579,-0.0422452,0.531945,0.171156,0,4.6,0,11543,48.703,26.329,12823
736379501,0.634769,2.223,114.603,0.0693929,0.0394774,0.947916,-3.76784,2.79878,-0.00387906,-0.0156174,0.542762,0.0582855,0,4.6,0,11543,48.703,26.329,12823
736479862,0.634769,2.223,114.602,0.0635208,0.039925,0.947611,-3.80393,2.82616,-0.00462927,0.0213915,0.488794,-0.0128188,0,4.6,0,11500,48.716,26.443,12882
736580274,0.634769,2.223,114.61,0.0543623,0.0410888,0.94767,-3.83464,2.8457,6.23725e-05,-0.0604346,0.35287,0.381158,0,4.6,0,11500,48.716,26.443,12882
736680641,0.634769,2.223,114.619,0.0459675,0.0406627,0.947515,-3.86114,2.85878,0.0192373,-0.118726,0.278571,-0.126936,0,4.6,0,11500,48.716,26.443,12882
736781045,0.634769,2.223,114.615,0.0385759,0.0391982,0.947653,-3.87911,2.86043,0.0173228,-0.0888701,0.253492,-0.0602816,0,4.6,0,11500,48.716,26.443,12882
736881383,0.634769,2.223,114.613,0.0354318,0.0378356,0.947546,-3.89009,2.87868,0.00910583,0.073244,0.224642,0.147828,0,4.6,0,11500,48.716,26.443,12882
736981759,0.634769,2.223,114.618,0.0331366,0.0389983,0.947311,-3.89593,2.88656,0.0179069,-0.00203011,0.146112,-0.255516,0,4.6,0,11500,48.716,26.443,12882
737082068,0.634769,2.223,114.62,0.0320788,0.0396201,0.947193,-3.89695,2.89208,0.00683029,0.0171199,0.0719032,-0.118978,0,4.6,0,11500,48.716,26.443,12882
737182433,0.634769,2.223,114.618,0.0331173,0.0394781,0.946778,-3.90635,2.89303,-0.00136288,-0.0563761,0.104259,-0.07381,0,4.6,0,11500,48.716,26.443,12882
737282785,0.634769,2.223,114.616,0.0329865,0.0391614,0.946347,-3.92072,2.88988,0.00779949,-0.118108,0.09264,0.0239901,0,4.6,0,11500,48.716,26.443,12882
737383118,0.634769,2.223,114.615,0.0302047,0.0370426,0.946796,-3.92446,2.90238,-0.00472886,0.0368696,0.114676,-0.0876924,0,4.6,0,11500,48.716,26.443,12882
737483417,0.634769,2.223,114.618,0.0276738,0.0368563,0.9468,-3.92661,2.90335,0.00367837,0.02493,0.0251827,0.192726,0,4.6,0,11500,48.74,24.19,11790.2
737583759,0.634769,2.223,114.623,0.0260737,0.0388013,0.946952,-3.92084,2.90795,0.00995488,0.0548559,0.00839199,-0.108073,0,4.6,0,11500,48.74,24.19,11790.2
737684113,0.634769,2.223,114.628,0.0251979,0.0403489,0.946657,-3.92991,2.90777,0.00712169,-0.0527293,0.077383,-0.0762134,0,4.6,0,11500,48.74,24.19,11790.2
737784548,0.634769,2.223,114.626,0.0247052,0.0390928,0.946715,-3.93378,2.90332,0.00857676,-0.0683756,0.0436278,0.0807195,0,-3.5,0,11500,48.74,24.19,11790.2
737884914,0.634769,2.223,114.62,0.00989442,0.0360362,0.948056,-3.92933,2.89169,0.00337837,-0.041462,-0.0892589,0.164915,0,-3.5,0,11500,48.74,24.19,11790.2
737985252,0.634768,2.223,114.622,-0.154796,0.0263724,0.943201,-3.90532,2.87837,0.0437232,0.0107385,-0.48893,0.268588,0,-3.5,0,11500,48.74,24.19,11790.2
738085608,0.634768,2.223,114.63,-0.310019,0.0163989,0.942331,-3.70568,2.75358,0.028759,0.172953,-2.50433,0.0694442,0,-3.5,0,11500,48.74,24.19,11790.2
738185972,0.634768,2.223,114.624,-0.406783,0.010399,0.944359,-3.40092,2.55374,-0.0289284,0.21696,-3.55043,1.09181,0,-3.5,0,11500,48.74,24.19,11790.2
738286319,0.634768,2.223,114.616,-0.450731,0.00577159,0.947086,-3.00662,2.29774,-0.0460079,0.23269,-4.27636,1.88727,0,-3.5,0,11500,48.74,24.19,11790.2
738386669,0.634768,2.223,114.613,-0.46245,0.00573807,0.947942,-2.57555,2.02892,-0.050123,0.32778,-4.38806,2.28955,0,-3.5,0,11500,48.74,24.19,11790.2
738487016,0.634768,2.223,114.609,-0.457256,0.00914697,0.946653,-2.14661,1.75659,-0.046049,0.317548,-4.40668,2.37622,0,-3.5,0,11500,48.762,24.724,12055.9
738587369,0.634768,2.223,114.602,-0.44534,0.0144515,0.94451,-1.73052,1.48843,-0.0316475,0.296233,-4.27049,2.22512,0,-3.5,0,11500,48.762,24.724,12055.9
738687716,0.634768,2.223,114.596,-0.429909,0.0217095,0.941698,-1.32211,1.22445,-0.0162667,0.288355,-4.19208,2.08769,0,-3.5,0,11500,48.762,24.724,12055.9
738788099,0.634768,2.223,114.598,-0.414967,0.0289636,0.938657,-0.947798,0.970868,-0.0157066,0.173414,-3.95008,1.70878,0,-3.5,0,11500,48.762,24.724,12055.9
738888462,0.634768,2.223,114.606,-0.402315,0.0340148,0.93735,-0.597872,0.719031,-0.00473628,0.021983,-3.64076,1.81791,0,-3.5,0,11500,48.762,24.724,12055.9
738988801,0.634768,2.223,114.61,-0.38956,0.0385599,0.935928,-0.261911,0.472324,0.00529597,-0.0420396,-3.57054,1.54478,0,-3.5,0,11500,48.762,24.724,12055.9
739089122,0.634768,2.223,114.613,-0.379234,0.0409927,0.935284,0.0520394,0.23228,0.0100191,-0.0524726,-3.4271,1.39557,0,-3.5,0,11500,48.762,24.724,12055.9
739189409,0.634768,2.223,114.619,-0.370738,0.044206,0.934189,0.345854,0.0116066,0.010204,-0.0282067,-3.18934,1.17728,0,-3.5,0,11500,48.762,24.724,12055.9
739289699,0.634768,2.223,114.624,-0.364374,0.0460961,0.933717,0.630297,-0.200748,0.00825551,0.0247089,-3.18318,1.0925,0,-3.5,0,11500,48.762,24.724,12055.9
739390037,0.634768,2.223,114.634,-0.361244,0.0476898,0.933318,0.896468,-0.408741,0.0145387,-0.0471533,-3.00284,1.20135,0,-3.5,0,11500,48.762,24.724,12055.9
739490923,0.634768,2.223,114.642,-0.359219,0.0487594,0.933723,1.15267,-0.613248,0.0138372,-0.088913,-2.97714,1.11757,0,-3.5,0,11500,48.762,24.724,12055.9
739591273,0.634768,2.223,114.655,-0.354707,0.0506229,0.933719,1.3937,-0.815579,0.00980261,-0.133921,-2.87267,1.00314,0,-3.5,0,11500,48.774,24.087,11748.2
739691657,0.634768,2.223,114.667,-0.327239,0.0486943,0.935293,1.62593,-1.00998,0.0127409,-0.147609,-2.79061,0.787317,0,-3.5,0,11500,48.774,24.087,11748.2
739792111,0.634768,2.223,114.679,-0.294285,0.0446597,0.936658,1.86,-1.20471,0.0112702,-0.09406,-2.34755,0.56948,0,0.2,0,11500,48.774,24.087,11748.2
739892461,0.634768,2.223,114.687,-0.242744,0.0429337,0.935937,2.02557,-1.34513,0.019965,-0.0558074,-2.07776,0.659087,0,0.2,0,11500,48.774,24.087,11748.2
739992847,0.634768,2.223,114.703,0.0072835,0.0439822,0.945881,2.13055,-1.43219,0.102035,0.0247938,-0.874276,0.643004,0,0.2,0,11500,48.774,24.087,11748.2
740093172,0.634769,2.223,114.725,0.302482,0.0424171,0.953331,1.9278,-1.2966,0.117319,-0.0579219,2.83816,-0.0209015,0,0.2,0,11500,48.774,24.087,11748.2
740193546,0.634769,2.223,114.74,0.433932,0.0426975,0.953825,1.55785,-1.03805,-0.0117828,-0.0372316,4.74713,0.458059,0,0.2,0,11500,48.774,24.087,11748.2
740293911,0.634769,2.223,114.743,0.44195,0.0477301,0.953174,1.13076,-0.743607,-0.0905136,-0.0296873,4.89037,1.66688,0,0.2,0,11500,48.774,24.087,11748.2
740394239,0.634769,2.223,114.736,0.384368,0.0403257,0.948253,0.6978,-0.459048,-0.115124,-0.123726,4.6035,1.79231,0,0.2,0,11500,48.774,24.087,11748.2
740494617,0.634769,2.223,114.723,0.287231,0.0189774,0.941556,0.350143,-0.206047,-0.118454,0.114122,3.80229,1.10523,0,0.2,0,11500,48.774,24.087,11748.2
740594962,0.634769,2.223,114.705,0.190499,0.0153944,0.941969,0.0976404,0.00654131,-0.107737,0.213074,2.82712,0.816524,0,0.2,0,11456,48.583,27.834,13522.6
740695297,0.634769,2.223,114.682,0.109406,0.0246986,0.944317,-0.0903642,0.156431,-0.0894519,0.100808,1.98002,0.220901,0,0.2,0,11456,48.583,27.834,13522.6
740795631,0.634769,2.223,114.673,0.0430735,0.0312128,0.945162,-0.212308,0.260988,-0.0698246,0.146799,1.15974,0.460442,0,0.2,0,11456,48.583,27.834,13522.6
740895981,0.634769,2.223,114.675,0.000766915,0.0399476,0.945215,-0.29417,0.324191,-0.052498,0.0316111,0.650361,0.391771,0,0.2,0,11456,48.583,27.834,13522.6
740996367,0.634768,2.223,114.68,-0.0275471,0.0450506,0.945199,-0.355523,0.345946,-0.0309754,-0.156721,0.245825,0.142576,0,0.2,0,11456,48.583,27.834,13522.6
741096707,0.634768,2.223,114.686,-0.0479781,0.047854,0.94444,-0.398239,0.359059,-0.0238469,-0.114616,0.0889118,0.223239,0,0.2,0,11456,48.583,27.834,13522.6
741197137,0.634768,2.223,114.695,-0.0605731,0.0480525,0.944063,-0.422506,0.352365,-0.019929,-0.176864,-0.188767,-0.00638002,0,0.2,0,11456,48.583,27.834,13522.6
741297592,0.634768,2.223,114.704,-0.0666803,0.0455873,0.943896,-0.422077,0.34095,-0.00865743,-0.0368747,-0.36097,0.428897,0,0.2,0,11456,48.583,27.834,13522.6
741397909,0.634768,2.223,114.704,-0.0678943,0.0440841,0.943905,-0.418726,0.329562,-0.0226184,-0.0732753,-0.304258,-0.042509,0,0.2,0,11456,48.583,27.834,13522.6
741498268,0.634768,2.223,114.702,-0.0668544,0.0418436,0.944001,-0.408201,0.312713,-0.0302895,-0.0464722,-0.308421,0.123324,0,0.2,0,11456,48.583,27.834,13522.6
741598613,0.634768,2.223,114.697,-0.0634,0.0411473,0.943843,-0.390643,0.302288,-0.0241686,-0.0198843,-0.281642,-0.0455174,0,0.2,0,11456,48.605,27.294,13266.2
741698976,0.634768,2.223,114.692,-0.0573687,0.0399159,0.943706,-0.377722,0.284926,-0.0352158,-0.0625983,-0.214541,0.0548066,0,0.2,0,11456,48.605,27.294,13266.2
741799428,0.634768,2.223,114.687,-0.0530939,0.0385485,0.943388,-0.368528,0.275649,-0.030487,-0.0387996,-0.112194,-0.0291301,0,-3.8,0,11456,48.605,27.294,13266.2
741899793,0.634768,2.223,114.684,-0.0782416,0.0356669,0.94465,-0.362887,0.269603,-0.0306568,-0.0250971,-0.0211805,0.255525,0,-3.8,0,11456,48.605,27.294,13266.2
742000185,0.634768,2.223,114.683,-0.202105,0.0268929,0.94032,-0.315347,0.243938,-0.00815132,0.0597193,-0.760395,-0.0733525,0,-3.8,0,11456,48.605,27.294,13266.2
742100537,0.634768,2.223,114.68,-0.318075,0.0214817,0.940218,-0.155888,0.139353,-0.0589148,0.0407259,-2.02809,0.145348,0,-3.8,0,11456,48.605,27.294,13266.2
742200945,0.634768,2.223,114.676,-0.392022,0.0190276,0.940774,0.107254,-0.0334519,-0.0710739,0.138653,-2.88102,1.17507,0,-3.8,0,11456,48.605,27.294,13266.2
742301276,0.634768,2.223,114.671,-0.42674,0.0208279,0.940855,0.441198,-0.247731,-0.0507828,0.210142,-3.4645,1.80675,0,-3.8,0,11456,48.605,27.294,13266.2
742401651,0.634768,2.223,114.659,-0.435472,0.0237832,0.94068,0.789411,-0.47376,-0.0490207,0.232727,-3.67772,1.60889,0,-3.8,0,11456,48.605,27.294,13266.2
742502002,0.634768,2.223,114.647,-0.43261,0.0266474,0.94074,1.13477,-0.701204,-0.0345115,0.230247,-3.48014,2.03107,0,-3.8,0,11456,48.605,27.294,13266.2
742602347,0.634768,2.223,114.647,-0.427171,0.0310626,0.939821,1.47317,-0.933988,-0.0325852,0.0858569,-3.49495,1.74199,0,-3.8,0,11456,48.621,26.111,12695.4
742702705,0.634768,2.223,114.65,-0.408147,0.0369446,0.938427,1.80028,-1.16069,-0.0255728,0.0821832,-3.41102,1.67058,0,-3.8,0,11456,48.621,26.111,12695.4
742803056,0.634769,2.223,114.652,-0.362873,0.0411411,0.937954,2.0965,-1.37119,-0.00744859,0.0649087,-3.01833,1.47346,0,-3.8,0,11456,48.621,26.111,12695.4
742903415,0.634769,2.223,114.649,-0.317247,0.0448382,0.937636,2.33308,-1.55088,-0.00441719,-0.0296854,-2.54664,1.03693,0,-3.8,0,11456,48.621,26.111,12695.4
743003764,0.634769,2.223,114.659,-0.272707,0.0449079,0.938493,2.52586,-1.70693,0.00200336,-0.164748,-2.09579,0.762127,0,-3.8,0,11456,48.621,26.111,12695.4
743105429,0.634769,2.223,114.666,-0.234629,0.0434413,0.938934,2.68065,-1.83632,0.00741632,-0.12975,-1.72126,0.358827,0,-3.8,0,11456,48.621,26.111,12695.4
743211569,0.634769,2.223,114.673,-0.197902,0.0419127,0.940362,2.82237,-1.95588,0.00904766,-0.106985,-1.27738,0.184214,0,-3.8,0,11456,48.621,26.111,12695.4
743311935,0.634769,2.223,114.68,-0.168847,0.0413648,0.940728,2.91335,-2.03109,0.0129243,-0.0436491,-0.94577,0.219486,0,-3.8,0,11456,48.621,26.111,12695.4
743412320,0.634769,2.223,114.7,-0.146629,0.0421816,0.940702,2.96939,-2.08042,0.0165933,-0.0741954,-0.627496,-0.076481,0,-3.8,0,11456,48.621,26.111,12695.4
743513212,0.634769,2.223,114.719,-0.132913,0.0426699,0.940774,3.00347,-2.12793,0.000275331,-0.149106,-0.453,-0.202759,0,-3.8,0,11456,48.621,26.111,12695.4
743613622,0.634769,2.223,114.718,-0.124865,0.0426685,0.941279,3.02747,-2.15953,-0.014734,-0.117321,-0.379431,-0.267153,0,-3.8,0,11456,48.687,25.139,12239.4
743714047,0.634769,2.223,114.717,-0.11749,0.0380827,0.942101,3.05113,-2.17888,-0.029308,0.0245476,-0.340428,-0.158633,0,-3.8,0,11456,48.687,25.139,12239.4
743814551,0.634769,2.223,114.717,-0.11364,0.0342033,0.942966,3.06745,-2.1919,-0.0231583,0.0380151,-0.248254,-0.144615,0,3.8,0,11456,48.687,25.139,12239.4
743914983,0.634769,2.223,114.715,-0.0827804,0.0322973,0.940772,3.08552,-2.1969,-0.0346517,0.0865621,-0.227904,0.339504,0,3.8,0,11456,48.687,25.139,12239.4
744016461,0.634769,2.223,114.711,0.136096,0.0238352,0.946568,3.06054,-2.18083,0.0542292,0.0335886,0.577197,0.733972,0,3.8,0,11456,48.687,25.139,12239.4
744117150,0.634769,2.223,114.719,0.329148,0.0200349,0.948818,2.82135,-1.98814,0.0353465,0.141342,3.27055,-0.081768,0,3.8,0,11456,48.687,25.139,12239.4
744217552,0.634769,2.223,114.722,0.43002,0.0221098,0.949102,2.46288,-1.71347,-0.047861,0.18393,4.2938,1.55111,0,3.8,0,11456,48.687,25.139,12239.4
744317923,0.634769,2.223,114.716,0.483776,0.0219109,0.9494,2.00379,-1.38158,-0.0438199,0.0371251,5.14295,2.07741,0,3.8,0,11456,48.687,25.139,12239.4
744418281,0.634769,2.223,114.705,0.507762,0.0223545,0.94922,1.54351,-1.03994,-0.122434,0.115077,5.1715,2.37457,0,3.8,0,11456,48.687,25.139,12239.4
744518624,0.634769,2.223,114.686,0.516735,0.020338,0.947374,1.04209,-0.657427,-0.1481,0.195336,5.34462,2.99612,0,3.8,0,11456,48.687,25.139,12239.4
744618988,0.634769,2.223,114.658,0.512013,0.0126033,0.941965,0.521682,-0.262033,-0.167288,0.155633,5.40564,3.25226,0,3.8,0,11456,48.597,26.636,12944.3
744719335,0.634769,2.223,114.632,0.494607,0.00218411,0.937324,0.014606,0.158085,-0.145616,0.421052,5.33584,3.41278,0,3.8,0,11456,48.597,26.636,12944.3
744819747,0.634769,2.223,114.621,0.470668,0.0093315,0.941194,-0.481044,0.574418,-0.093095,0.383213,5.23163,3.12502,0,3.8,0,11456,48.597,26.636,12944.3
744920148,0.634769,2.223,114.617,0.444034,0.0250647,0.947095,-0.943292,0.962029,-0.0580418,0.339662,4.87706,2.71368,0,3.8,0,11456,48.597,26.636,12944.3
745020489,0.634769,2.223,114.622,0.405535,0.0450561,0.953089,-1.37659,1.2861,-0.0353086,0.0149771,4.61845,2.07766,0,3.8,0,11456,48.597,26.636,12944.3
745120838,0.634769,2.223,114.634,0.329125,0.0571354,0.955374,-1.7751,1.55985,-0.0032379,-0.130763,4.04348,1.74692,0,3.8,0,11456,48.597,26.636,12944.3
745221162,0.634769,2.223,114.654,0.247599,0.0649781,0.95665,-2.09318,1.76882,0.030318,-0.224076,3.2034,0.902773,0,3.8,0,11456,48.597,26.636,12944.3
745321482,0.634769,2.223,114.681,0.180584,0.0679122,0.956418,-2.32535,1.90201,0.0370604,-0.343159,2.23776,0.267759,0,3.8,0,11456,48.597,26.636,12944.3
745423575,0.634769,2.223,114.692,0.128913,0.0668031,0.955513,-2.49719,1.98632,0.036262,-0.348961,1.57223,0.0889097,0,3.8,0,11456,48.597,26.636,12944.3
745530747,0.634769,2.223,114.707,0.0935162,0.0637802,0.95425,-2.64413,2.05319,0.0193297,-0.344399,1.09558,-0.145686,0,3.8,0,11456,48.597,26.636,12944.3
745631178,0.634769,2.223,114.718,0.0726891,0.0587549,0.953103,-2.73474,2.08855,0.0094507,-0.284577,0.808397,-0.147447,0,3.8,0,11456,48.72,24.397,11886.2
745731486,0.634769,2.223,114.729,0.0616195,0.0532316,0.951969,-2.80178,2.12138,-0.00186864,-0.157355,0.671764,-0.295343,0,3.8,0,11456,48.72,24.397,11886.2
745831977,0.634769,2.223,114.728,0.0496608,0.047987,0.950758,-2.85339,2.14524,-0.0194462,-0.127851,0.530054,-0.195572,0,-1.4,0,11456,48.72,24.397,11886.2
745933181,0.634769,2.223,114.724,0.0245779,0.0448787,0.951355,-2.88952,2.17347,-0.0196117,-0.0525996,0.535845,0.212227,0,-1.4,0,11456,48.72,24.397,11886.2
746035447,0.634769,2.223,114.72,-0.189134,0.0341188,0.943666,-2.88864,2.15625,0.0339378,-0.113234,-0.406636,-0.131878,0,-1.4,0,11456,48.72,24.397,11886.2
746135851,0.634769,2.223,114.72,-0.364589,0.025626,0.941873,-2.67722,2.01237,-0.0305483,0.00429481,-2.6841,0.0616592,0,-1.4,0,11456,48.72,24.397,11886.2
746242923,0.634769,2.223,114.712,-0.462163,0.0236754,0.941365,-2.33247,1.78694,-0.0896986,0.128724,-3.81375,1.47976,0,-1.4,0,11456,48.72,24.397,11886.2
746349032,0.634769,2.223,114.698,-0.502895,0.0244622,0.941281,-1.80277,1.4315,-0.10019,0.146851,-4.51413,2.55738,0,-1.4,0,11456,48.72,24.397,11886.2
746449396,0.634769,2.223,114.683,-0.505943,0.0262704,0.941005,-1.33679,1.11335,-0.0836697,0.146106,-4.63048,2.68541,0,-1.4,0,11456,48.72,24.397,11886.2
746549751,0.634769,2.223,114.667,-0.494708,0.0293655,0.940515,-0.869588,0.801245,-0.0693267,0.218027,-4.4851,2.83364,0,-1.4,0,11456,48.72,24.397,11886.2
746650103,0.634769,2.223,114.655,-0.471108,0.0355121,0.93845,-0.432838,0.494382,-0.0444662,0.133908,-4.31336,2.53591,0,-1.4,0,11456,48.72,24.397,11886.2
746750428,0.634769,2.223,114.645,-0.411576,0.0397809,0.938853,-0.0253879,0.210478,-0.0244305,0.107083,-4.03228,1.97949,0,-1.4,0,11456,48.648,27.174,13219.6
746850790,0.634769,2.223,114.649,-0.337671,0.0435591,0.939397,0.302723,-0.0346156,0.000371579,-0.0522687,-3.36654,1.30478,0,-1.4,0,11456,48.648,27.174,13219.6
746951123,0.634769,2.223,114.659,-0.263458,0.0455113,0.940073,0.551824,-0.206639,0.00924601,0.0536609,-2.429,0.763055,0,-1.4,0,11456,48.648,27.174,13219.6
747051474,0.634769,2.223,114.672,-0.205919,0.0487329,0.940597,0.736543,-0.349649,0.0199627,-0.0426304,-1.83666,0.449065,0,-1.4,0,11456,48.648,27.174,13219.6
747151829,0.634769,2.223,114.686,-0.161178,0.0495458,0.940881,0.872708,-0.458651,0.0110366,-0.0613825,-1.35047,0.0691515,0,-1.4,0,11456,48.648,27.174,13219.6
747252159,0.634769,2.223,114.705,-0.128923,0.0492175,0.941799,0.972351,-0.541176,0.00845372,-0.134503,-0.924374,-0.0180583,0,-1.4,0,11456,48.648,27.174,13219.6
747352409,0.634769,2.223,114.728,-0.104173,0.0457736,0.942644,1.03998,-0.60654,0.00452183,-0.0826499,-0.593675,-0.2068,0,-1.4,0,11456,48.648,27.174,13219.6
747453645,0.634769,2.223,114.738,-0.0859546,0.0426702,0.943251,1.08367,-0.648161,-0.00569947,-0.0563827,-0.395768,-0.389659,0,-1.4,0,11456,48.648,27.174,13219.6
747554013,0.634769,2.223,114.745,-0.0762645,0.039683,0.94345,1.10851,-0.668768,-0.0125499,0.0275094,-0.189746,-0.150756,0,-1.4,0,11456,48.648,27.174,13219.6
747654344,0.634769,2.223,114.743,-0.0699851,0.0399754,0.943472,1.12662,-0.683111,-0.0319355,0.0409483,-0.0994353,-0.133712,0,-1.4,0,11456,48.648,27.174,13219.6
747754730,0.634769,2.223,114.735,-0.0658849,0.0383265,0.943406,1.12982,-0.690186,-0.0432965,0.0509399,0.00896735,-0.0781242,0,-1.4,0,11456,48.59,28.608,13900.6
747855183,0.634769,2.223,114.719,-0.0646183,0.0370784,0.94365,1.13262,-0.701936,-0.0560422,-0.0122355,-0.0558463,-0.0635105,0,-1.8,0,11456,48.59,28.608,13900.6
747955541,0.634769,2.223,114.702,-0.0830018,0.0343663,0.943997,1.12962,-0.703243,-0.0445154,0.049292,0.0443458,0.461097,0,-1.8,0,11456,48.59,28.608,13900.6
748055898,0.634769,2.223,114.688,-0.11608,0.0327063,0.943194,1.14877,-0.711407,-0.0354904,0.0837738,-0.385748,-0.235759,0,-1.8,0,11456,48.59,28.608,13900.6
748156294,0.634769,2.223,114.674,-0.136126,0.036549,0.942622,1.19982,-0.728493,-0.0626371,0.164641,-0.607939,0.12242,0,-1.8,0,11456,48.59,28.608,13900.6
748256654,0.634769,2.223,114.662,-0.139203,0.0387692,0.942664,1.26009,-0.771122,-0.0560265,0.0883438,-0.785386,0.349938,0,-1.8,0,11456,48.59,28.608,13900.6
748357009,0.634769,2.223,114.657,-0.134894,0.0416278,0.942806,1.31531,-0.806496,-0.0429837,0.0923839,-0.656081,0.262328,0,-1.8,0,11456,48.59,28.608,13900.6
748457346,0.634769,2.223,114.648,-0.128434,0.0428629,0.942951,1.35577,-0.842703,-0.038868,-0.00188953,-0.56561,0.270287,0,-1.8,0,11456,48.59,28.608,13900.6
748557718,0.634769,2.223,114.637,-0.119412,0.0432545,0.942904,1.39104,-0.881345,-0.0286977,-0.0530261,-0.590681,0.17686,0,-1.8,0,11456,48.59,28.608,13900.6
748658076,0.634769,2.223,114.635,-0.110587,0.0432019,0.943085,1.42485,-0.911516,-0.0176021,-0.0241637,-0.51507,0.1193,0,-1.8,0,11456,48.59,28.608,13900.6
748758441,0.634769,2.223,114.636,-0.103909,0.0442109,0.943145,1.45172,-0.9324,-0.0132271,0.039022,-0.416907,0.210932,0,-1.8,0,11412,48.56,28.405,13793.5
748859931,0.634769,2.223,114.629,-0.0953265,0.0449521,0.942678,1.47223,-0.956189,-0.0101005,-0.0651325,-0.346501,0.12348,0,-1.8,0,11412,48.56,28.405,13793.5
748967052,0.634769,2.223,114.622,-0.0912413,0.0449828,0.942397,1.48758,-0.970299,0.00195844,0.0102221,-0.277121,-0.0423014,0,-1.8,0,11412,48.56,28.405,13793.5
749067406,0.634769,2.223,114.626,-0.0902893,0.0461996,0.942261,1.49386,-0.97898,0.00697245,-0.00572721,-0.182904,0.168569,0,-1.8,0,11412,48.56,28.405,13793.5
749167769,0.634769,2.223,114.631,-0.0899129,0.0484602,0.94174,1.49847,-0.989837,0.00147961,-0.0643692,-0.130142,-0.0785364,0,-1.8,0,11412,48.56,28.405,13793.5
749268087,0.634769,2.223,114.623,-0.0888754,0.0490981,0.941584,1.50318,-1.0115,-0.0090061,-0.107216,-0.196875,0.0527982,0,-1.8,0,11412,48.56,28.405,13793.5
749368430,0.634769,2.223,114.623,-0.0855045,0.0479213,0.942105,1.50538,-1.03693,-0.00558904,-0.176929,-0.19755,0.118876,0,-1.8,0,11412,48.56,28.405,13793.5
749468785,0.634769,2.223,114.633,-0.0832981,0.0449402,0.942337,1.49979,-1.0651,-0.00685939,-0.222475,-0.178771,-0.0533755,0,-1.8,0,11412,48.56,28.405,13793.5
749569156,0.634769,2.223,114.629,-0.083638,0.03976,0.942988,1.50417,-1.0812,-0.00222488,-0.0309597,-0.146139,0.28044,0,-1.8,0,11412,48.56,28.405,13793.5
749669538,0.634769,2.223,114.622,-0.0811023,0.0367099,0.943579,1.50749,-1.09044,-0.00104551,-0.0221042,-0.13267,-0.134985,0,-1.8,0,11412,48.56,28.405,13793.5
749769889,0.634769,2.223,114.617,-0.0804169,0.0339389,0.943814,1.50711,-1.09756,-0.0120423,0.0127095,-0.0710747,0.00957663,0,-1.8,0,11412,48.667,25.679,12497.2
749870299,0.634769,2.223,114.615,-0.0777058,0.0328777,0.943876,1.51386,-1.09982,-0.00535458,0.0524475,-0.0920771,-0.0130607,0,3.8,0,11412,48.667,25.679,12497.2
749970698,0.634769,2.223,114.613,-0.0535892,0.0332804,0.941923,1.51661,-1.10441,-0.00740673,0.0278654,-0.111514,0.341249,0,3.8,0,11412,48.667,25.679,12497.2
750071072,0.634769,2.223,114.618,0.14342,0.0296037,0.947468,1.47784,-1.07778,0.0624047,0.0305962,0.803553,0.353198,0,3.8,0,11412,48.667,25.679,12497.2
750171387,0.634769,2.223,114.629,0.313859,0.0246205,0.950715,1.24868,-0.901672,0.032245,0.136215,3.09068,0.100439,0,3.8,0,11412,48.667,25.679,12497.2
750271769,0.634769,2.223,114.631,0.409864,0.0217695,0.950701,0.919722,-0.648899,-0.0298014,0.186079,4.00926,1.47736,0,3.8,0,11412,48.667,25.679,12497.2
750372231,0.634769,2.223,114.627,0.459087,0.01906,0.949603,0.5147,-0.336346,-0.0588877,0.21805,4.72355,1.97527,0,3.8,0,11412,48.667,25.679,12497.2
750472608,0.634769,2.223,114.623,0.477458,0.0185657,0.947514,0.0702529,0.00749654,-0.0772858,0.192781,5.0108,2.49329,0,3.8,0,11412,48.667,25.679,12497.2
750572954,0.634769,2.223,114.6,0.472015,0.0247358,0.949053,-0.391137,0.370716,-0.0617596,0.2066,4.99844,2.76095,0,3.8,0,11412,48.667,25.679,12497.2
750673294,0.634769,2.223,114.572,0.457055,0.0289101,0.949755,-0.836093,0.710265,-0.0568679,0.170753,4.78097,2.61171,0,3.8,0,11412,48.667,25.679,12497.2
750773638,0.634769,2.223,114.562,0.434224,0.0368488,0.952441,-1.27479,1.04143,-0.0414543,0.116728,4.67213,2.54407,0,3.8,0,11412,48.678,24.605,11977.2
750874000,0.634769,2.223,114.554,0.37323,0.0438272,0.953981,-1.69552,1.33528,-0.0285208,-0.0794084,4.33615,2.0978,0,3.8,0,11412,48.678,24.605,11977.2
750974354,0.634769,2.223,114.543,0.294084,0.0472468,0.953877,-2.03978,1.57403,0.000776328,-0.0652963,3.51788,1.70835,0,3.8,0,11412,48.678,24.605,11977.2
751074751,0.634769,2.223,114.536,0.218208,0.0489717,0.953736,-2.31406,1.75079,0.026574,-0.166093,2.85097,0.792961,0,3.8,0,11412,48.678,24.605,11977.2
751175102,0.634769,2.223,114.548,0.155425,0.0479566,0.952976,-2.51221,1.88084,0.0332518,-0.0897271,2.0448,0.534085,0,3.8,0,11412,48.678,24.605,11977.2
751275447,0.634769,2.223,114.562,0.106894,0.0465547,0.952062,-2.64993,1.97554,0.045229,-0.0529079,1.34931,0.267548,0,3.8,0,11412,48.678,24.605,11977.2
751375786,0.634769,2.223,114.567,0.0770664,0.0464354,0.951559,-2.74295,2.03729,0.0453197,-0.0963459,0.974128,0.078507,0,3.8,0,11412,48.678,24.605,11977.2
751476180,0.634769,2.223,114.578,0.058826,0.0468431,0.950952,-2.81347,2.08169,0.0514552,-0.0851884,0.703581,0.0384318,0,3.8,0,11412,48.678,24.605,11977.2
751576506,0.634769,2.223,114.583,0.046174,0.0468751,0.950432,-2.86881,2.11319,0.0496372,-0.101924,0.53718,-0.162533,0,3.8,0,11412,48.678,24.605,11977.2
751676847,0.634769,2.223,114.589,0.0390204,0.04644,0.949835,-2.90798,2.13592,0.0413211,-0.114813,0.413904,0.0903001,0,3.8,0,11412,48.678,24.605,11977.2
751777141,0.634769,2.223,114.593,0.0359207,0.0456397,0.94945,-2.93313,2.14306,0.0392678,-0.159619,0.233377,-0.0577168,0,3.8,0,11412,48.678,24.605,11977.2
751877561,0.634769,2.223,114.591,0.0388237,0.0446273,0.949143,-2.94902,2.15541,0.0267467,-0.0219163,0.291401,-0.0209888,0,-1.4,0,11412,48.69,23.877,11625.7
751977916,0.634769,2.223,114.588,0.0258217,0.0439587,0.950182,-2.96459,2.16224,0.0220057,-0.0704387,0.226872,0.0580212,0,-1.4,0,11412,48.69,23.877,11625.7
752078260,0.634769,2.223,114.59,-0.149161,0.0350504,0.944309,-2.97344,2.1599,0.0797337,-0.0758152,-0.0581963,0.428306,0,-1.4,0,11412,48.69,23.877,11625.7
752178638,0.634769,2.223,114.595,-0.330974,0.0284778,0.940705,-2.78556,2.04205,0.0453876,0.0766902,-2.36825,-0.137779,0,-1.4,0,11412,48.69,23.877,11625.7
752279001,0.634769,2.223,114.594,-0.439711,0.0259784,0.939893,-2.46684,1.82187,-0.0165859,0.0764292,-3.58965,1.36602,0,-1.4,0,11412,48.69,23.877,11625.7
752379354,0.634769,2.223,114.592,-0.491522,0.0246058,0.940112,-2.04164,1.53655,-0.0246733,0.133193,-4.34085,2.30377,0,-1.4,0,11412,48.69,23.877,11625.7
752479690,0.634769,2.223,114.589,-0.499573,0.0248023,0.940695,-1.57949,1.23079,-0.0203958,0.194031,-4.64743,2.35637,0,-1.4,0,11412,48.69,23.877,11625.7
752580079,0.634769,2.223,114.578,-0.485489,0.0289435,0.939057,-1.12262,0.922174,-0.0170165,0.165846,-4.48073,2.55985,0,-1.4,0,11412,48.69,23.877,11625.7
752680429,0.634769,2.223,114.559,-0.468252,0.0340279,0.937939,-0.692148,0.621657,-0.0096692,0.124205,-4.2248,2.47913,0,-1.4,0,11412,48.69,23.877,11625.7
752780806,0.634769,2.223,114.56,-0.430993,0.0389867,0.936977,-0.277409,0.321994,-0.000852479,0.0355426,-4.18308,2.29199,0,-1.4,0,11412,48.69,23.877,11625.7
752881163,0.634769,2.223,114.565,-0.359838,0.0417439,0.937577,0.0836599,0.0567529,0.030558,-0.0386709,-3.63896,1.5228,0,-1.4,0,11412,48.564,29.539,14345.3
752981489,0.634769,2.223,114.566,-0.289506,0.0426621,0.938838,0.357043,-0.151123,0.0435532,-0.0567215,-2.8001,0.948387,0,-1.4,0,11412,48.564,29.539,14345.3
753081791,0.634769,2.223,114.57,-0.231268,0.0426282,0.940065,0.5972,-0.339237,0.048879,-0.0868243,-1.99787,0.498321,0,-1.4,0,11412,48.564,29.539,14345.3
753182089,0.634769,2.223,114.584,-0.183437,0.0420356,0.941269,0.741857,-0.458471,0.0534165,-0.120143,-1.47145,0.23122,0,-1.4,0,11412,48.564,29.539,14345.3
753282420,0.634769,2.223,114.601,-0.148942,0.0412946,0.942105,0.845895,-0.537312,0.0451215,-0.0476997,-1.02941,-0.0203102,0,-1.4,0,11412,48.564,29.539,14345.3
753382796,0.634769,2.223,114.61,-0.122954,0.0396086,0.942541,0.920341,-0.605756,0.036286,-0.0632916,-0.72869,0.0614142,0,-1.4,0,11412,48.564,29.539,14345.3
753483215,0.634769,2.223,114.615,-0.104127,0.036861,0.943032,0.974729,-0.648584,0.0336514,-0.00282901,-0.47966,-0.0219786,0,-1.4,0,11412,48.564,29.539,14345.3
753583563,0.634769,2.223,114.624,-0.0917182,0.0348033,0.943375,1.01201,-0.681494,0.0237563,-0.0437388,-0.312272,-0.0266323,0,-1.4,0,11412,48.564,29.539,14345.3
753683931,0.634769,2.223,114.633,-0.0812435,0.0324163,0.943481,1.03597,-0.703982,0.015321,-0.0132652,-0.23916,-0.0440606,0,-1.4,0,11412,48.564,29.539,14345.3
753784314,0.634769,2.223,114.633,-0.0757689,0.0303066,0.943963,1.05037,-0.716051,0.0149693,-0.00709687,-0.193418,-0.0731777,0,-1.4,0,11412,48.564,29.539,14345.3
753884744,0.634769,2.223,114.627,-0.0736232,0.0275321,0.943978,1.06152,-0.722024,0.00961719,0.0765271,-0.114776,0.00953436,0,2.6,0,11412,48.507,29.539,14328.5
753985456,0.634769,2.223,114.621,-0.0471085,0.0275703,0.941673,1.07275,-0.730675,0.00907057,0.0810275,-0.257103,0.488247,0,2.6,0,11412,48.507,29.539,14328.5
754085888,0.634769,2.223,114.618,0.165782,0.0252837,0.947184,1.0399,-0.69835,0.0642644,0.160872,0.746248,0.317012,0,2.6,0,11412,48.507,29.539,14328.5
754186342,0.634769,2.223,114.608,0.33384,0.0234798,0.949461,0.802713,-0.517799,-0.00306397,0.119532,3.02456,0.333477,0,2.6,0,11412,48.507,29.539,14328.5
754286765,0.634769,2.223,114.595,0.435319,0.0205255,0.948956,0.440739,-0.248388,-0.0560917,0.0977033,4.20924,1.6918,0,2.6,0,11412,48.507,29.539,14328.5
754387145,0.634769,2.223,114.596,0.482145,0.0194974,0.947872,-0.0109683,0.0940107,-0.0635346,0.18764,4.94995,2.51278,0,2.6,0,11412,48.507,29.539,14328.5
754487510,0.634769,2.223,114.599,0.472289,0.0250057,0.948418,-0.499523,0.46431,-0.0642393,0.155011,5.19638,2.76862,0,2.6,0,11412,48.507,29.539,14328.5
754587867,0.634769,2.223,114.581,0.396212,0.0319908,0.949278,-0.963564,0.808689,-0.0397734,0.0985035,4.7377,2.51943,0,2.6,0,11412,48.507,29.539,14328.5
754688281,0.634769,2.223,114.566,0.300704,0.0361687,0.948886,-1.33902,1.08114,-0.00747866,0.017355,3.93768,1.64739,0,2.6,0,11412,48.507,29.539,14328.5
754788660,0.634769,2.223,114.581,0.209805,0.0399317,0.949277,-1.60906,1.27171,0.0173185,-0.0229654,2.79323,0.720644,0,2.6,0,11412,48.507,29.539,14328.5
754889022,0.634769,2.223,114.595,0.128758,0.0441987,0.949302,-1.81049,1.40295,0.0201252,-0.123489,1.95618,0.141896,0,2.6,0,11368,48.535,28.231,13701.9
754989431,0.634769,2.223,114.612,0.0730765,0.0466479,0.949048,-1.94209,1.49091,0.0303573,-0.0741042,1.16598,0.24911,0,2.6,0,11368,48.535,28.231,13701.9
755096861,0.634769,2.223,114.628,0.039601,0.0474362,0.948878,-2.03344,1.54646,0.0380686,-0.0906264,0.775904,-0.0425873,0,2.6,0,11368,48.535,28.231,13701.9
755204590,0.634769,2.223,114.632,0.0189219,0.0472325,0.948542,-2.10311,1.59359,0.027767,-0.018775,0.457976,-0.0972157,0,2.6,0,11368,48.535,28.231,13701.9
755304955,0.634769,2.223,114.637,0.00645795,0.0471436,0.94808,-2.14765,1.61409,0.0167067,-0.0980639,0.320906,-0.274179,0,2.6,0,11368,48.535,28.231,13701.9
755405265,0.634769,2.223,114.639,-0.0012329,0.0453349,0.947632,-2.18743,1.62237,0.0152084,-0.206357,0.227911,-0.256946,0,2.6,0,11368,48.535,28.231,13701.9
755505676,0.634768,2.223,114.644,-0.00537866,0.0440187,0.947292,-2.20756,1.63657,0.00748648,-0.0129692,0.136353,-0.206809,0,2.6,0,11368,48.535,28.231,13701.9
755606030,0.634768,2.223,114.639,-0.00752026,0.0434191,0.947066,-2.22197,1.63346,-0.00374058,-0.101169,0.079966,-0.0487437,0,2.6,0,11368,48.535,28.231,13701.9
755706421,0.634768,2.223,114.634,-0.00706173,0.0407159,0.946859,-2.22969,1.63582,0.00194802,-0.0216355,0.129282,0.190678,0,2.6,0,11368,48.535,28.231,13701.9
755806802,0.634768,2.223,114.633,-0.0066429,0.0401315,0.946793,-2.23235,1.63906,0.00452085,-0.0130637,0.0944902,-0.179294,0,2.6,0,11368,48.535,28.231,13701.9
755907169,0.634768,2.223,114.635,-0.00618904,0.0407898,0.946738,-2.23124,1.63434,0.00387934,-0.0656909,0.0568955,0.0536113,0,4.9,0,11368,48.515,28.157,13660.4
756007538,0.634768,2.223,114.631,0.0263868,0.0401077,0.945072,-2.23057,1.62697,0.00630683,-0.0550716,0.013282,0.48186,0,4.9,0,11368,48.515,28.157,13660.4
756107924,0.634768,2.223,114.627,0.18295,0.0361953,0.951175,-2.27077,1.65723,0.0351172,-0.0245477,1.02014,-0.0632896,0,4.9,0,11368,48.515,28.157,13660.4
756208323,0.634768,2.223,114.629,0.307276,0.0359506,0.953474,-2.44811,1.78864,-0.0289221,-0.0155943,2.56771,0.064696,0,4.9,0,11368,48.515,28.157,13660.4
756308676,0.634768,2.223,114.62,0.346502,0.0351823,0.953288,-2.72395,1.98956,-0.0487914,0.00256731,3.37023,1.29045,0,4.9,0,11368,48.515,28.157,13660.4
756409018,0.634768,2.223,114.607,0.330342,0.0353565,0.952715,-3.02592,2.20716,-0.0291301,-0.0102862,3.4948,1.50572,0,4.9,0,11368,48.515,28.157,13660.4
756510505,0.634768,2.223,114.599,0.280108,0.0357351,0.951705,-3.29786,2.4045,-0.0164757,0.0205816,3.19809,1.12564,0,4.9,0,11368,48.515,28.157,13660.4
756614725,0.634768,2.223,114.591,0.222662,0.0381549,0.951221,-3.51666,2.55549,0.0112405,-0.101186,2.55263,0.742077,0,4.9,0,11368,48.515,28.157,13660.4
756715075,0.634768,2.223,114.578,0.174305,0.0381401,0.950583,-3.68239,2.66953,0.0119234,-0.033012,1.94452,0.550813,0,4.9,0,11368,48.515,28.157,13660.4
756815430,0.634768,2.223,114.585,0.135072,0.0369511,0.949826,-3.80934,2.75594,0.0198589,0.00757984,1.52917,0.279438,0,4.9,0,11368,48.515,28.157,13660.4
756915781,0.634768,2.223,114.601,0.104351,0.0362554,0.94892,-3.90095,2.82499,0.0246922,-0.00424613,1.13254,0.0284781,0,4.9,0,11368,48.515,28.157,13660.4
757016119,0.634768,2.223,114.605,0.0819712,0.0341605,0.948251,-3.9679,2.86972,0.0276503,-0.00433447,0.791556,0.0776571,0,4.9,0,11368,48.515,28.157,13660.4
757116482,0.634768,2.223,114.6,0.0649779,0.0318781,0.947901,-4.02046,2.90615,0.0149196,0.0122426,0.656973,0.195327,0,4.9,0,11368,48.515,28.157,13660.4
757216843,0.634768,2.223,114.603,0.0526047,0.0307104,0.94808,-4.05344,2.93618,0.0180818,0.0331074,0.458689,-0.0648002,0,4.9,0,11368,48.515,28.157,13660.4
757317169,0.634768,2.223,114.605,0.0431476,0.0310212,0.947887,-4.07977,2.95585,0.0142943,0.0323107,0.325204,-0.00602116,0,4.9,0,11368,48.515,28.157,13660.4
757417532,0.634768,2.223,114.596,0.0374116,0.0310738,0.947598,-4.08819,2.97029,0.0172086,0.0705379,0.195,0.0537941,0,4.9,0,11368,48.538,27.191,13198
757517873,0.634768,2.223,114.586,0.0336451,0.0318405,0.947459,-4.09485,2.9749,0.011517,0.00575285,0.128909,0.085421,0,4.9,0,11368,48.538,27.191,13198
757618224,0.634767,2.223,114.588,0.0303934,0.0329263,0.947128,-4.10064,2.97845,0.0235249,-0.00290859,0.155131,0.0776089,0,4.9,0,11368,48.538,27.191,13198
757718561,0.634767,2.223,114.592,0.0296153,0.032683,0.947149,-4.09787,2.98093,0.0133023,0.076674,0.0747217,0.0612244,0,4.9,0,11368,48.538,27.191,13198
757818859,0.634767,2.223,114.588,0.0304706,0.0322593,0.947033,-4.09338,2.98421,0.00518617,0.0539707,0.106171,0.022538,0,4.9,0,11368,48.538,27.191,13198
757919258,0.634767,2.223,114.583,0.0307933,0.0333778,0.946526,-4.09368,2.98407,0.0129432,0.00589533,0.1524,0.0998673,0,-2.4,0,11368,48.538,27.191,13198
758019610,0.634767,2.223,114.587,0.0165076,0.0330073,0.948021,-4.09972,2.99319,0.0251393,0.0289271,0.348365,0.391957,0,-2.4,0,11368,48.538,27.191,13198
758119958,0.634767,2.223,114.596,-0.156699,0.0250345,0.942976,-4.06112,2.96653,0.0768046,0.0598613,-0.639373,0.325893,0,-2.4,0,11368,48.538,27.191,13198
758220368,0.634767,2.223,114.61,-0.329086,0.0150992,0.942416,-3.82542,2.82094,0.04021,0.164537,-2.90672,0.0796549,0,-2.4,0,11368,48.538,27.191,13198
758320642,0.634767,2.223,114.618,-0.42763,0.00915537,0.944311,-3.48396,2.59825,-0.0109398,0.226655,-3.67994,1.61203,0,-2.4,0,11368,48.538,27.191,13198
758421043,0.634767,2.223,114.621,-0.473069,0.00498218,0.947228,-3.06047,2.32884,-0.0315179,0.319206,-4.43004,1.98064,0,-2.4,0,11324,48.57,25.725,12494.6
758521391,0.634767,2.223,114.624,-0.482455,0.006139,0.947851,-2.59896,2.03533,-0.0379676,0.312745,-4.6015,2.42247,0,-2.4,0,11324,48.57,25.725,12494.6
758621769,0.634767,2.223,114.61,-0.474692,0.0115362,0.946003,-2.14428,1.74956,-0.0292462,0.350152,-4.52563,2.37164,0,-2.4,0,11324,48.57,25.725,12494.6
758722107,0.634767,2.223,114.593,-0.460848,0.017813,0.943901,-1.70999,1.4643,-0.0251626,0.226496,-4.49287,2.06007,0,-2.4,0,11324,48.57,25.725,12494.6
758822406,0.634767,2.223,114.589,-0.441681,0.0266047,0.940899,-1.30478,1.17964,-0.0203594,0.112405,-4.14847,2.17516,0,-2.4,0,11324,48.57,25.725,12494.6
758924474,0.634767,2.223,114.586,-0.42737,0.0329547,0.938652,-0.920927,0.899083,-0.0055092,0.032383,-4.0234,1.92273,0,-2.4,0,11324,48.57,25.725,12494.6
759026293,0.634767,2.223,114.58,-0.41161,0.0376302,0.936765,-0.569302,0.639313,-0.00382868,0.0156368,-3.61372,1.85439,0,-2.4,0,11324,48.57,25.725,12494.6
759126696,0.634767,2.223,114.576,-0.398118,0.0409174,0.935929,-0.230289,0.382933,0.00651732,-0.0315439,-3.58747,1.66837,0,-2.4,0,11324,48.57,25.725,12494.6
759227056,0.634767,2.223,114.579,-0.387778,0.0442477,0.934913,0.0825411,0.144774,0.0231179,0.0209405,-3.31054,1.51286,0,-2.4,0,11324,48.57,25.725,12494.6
759328653,0.634767,2.223,114.589,-0.380774,0.0477303,0.934104,0.378942,-0.0923849,0.0203362,-0.0963046,-3.2921,1.18803,0,-2.4,0,11324,48.57,25.725,12494.6
759433841,0.634767,2.223,114.594,-0.349762,0.0467199,0.935188,0.66384,-0.320905,0.0189078,-0.104164,-3.15674,1.27917,0,-2.4,0,11324,48.57,25.725,12494.6
759540747,0.634767,2.223,114.596,-0.300764,0.0441198,0.936395,0.95824,-0.560139,0.0297317,-0.117129,-2.66484,0.849461,0,-2.4,0,11324,48.57,25.554,12411.6
759641089,0.634767,2.223,114.607,-0.256074,0.041422,0.937894,1.14149,-0.710821,0.0374641,-0.0446807,-2.07947,0.445512,0,-2.4,0,11324,48.57,25.554,12411.6
759741438,0.634767,2.223,114.62,-0.21842,0.0389436,0.939132,1.294,-0.835818,0.040283,-0.0583122,-1.75243,0.172135,0,-2.4,0,11324,48.57,25.554,12411.6
759841731,0.634767,2.223,114.638,-0.187565,0.0352403,0.939975,1.40378,-0.93364,0.0321501,-0.0499612,-1.3942,-0.180164,0,-2.4,0,11324,48.57,25.554,12411.6
759942165,0.634767,2.223,114.65,-0.164314,0.0315924,0.940676,1.49242,-1.01248,0.0269552,0.0126465,-1.11056,0.139493,0,3.4,0,11324,48.57,25.554,12411.6
760042504,0.634767,2.223,114.653,-0.120393,0.029671,0.939172,1.56974,-1.07575,0.0157978,0.0868824,-0.920512,0.3008,0,3.4,0,11324,48.57,25.554,12411.6
760142912,0.634767,2.223,114.66,0.125582,0.0250829,0.946182,1.60134,-1.09289,0.0947522,0.159474,0.0721618,0.481993,0,3.4,0,11324,48.57,25.554,12411.6
760243274,0.634767,2.223,114.675,0.344213,0.0204222,0.949005,1.37412,-0.926613,0.0578492,0.143835,3.32213,-0.496233,0,3.4,0,11324,48.57,25.554,12411.6
760343634,0.634767,2.223,114.687,0.462353,0.0174323,0.948019,1.02114,-0.654465,-0.0507383,0.199608,4.36896,1.34075,0,3.4,0,11324,48.57,25.554,12411.6
760443972,0.634767,2.223,114.679,0.518088,0.0168747,0.946112,0.555772,-0.298392,-0.087262,0.249353,5.14393,2.56549,0,3.4,0,11324,48.57,25.554,12411.6
760544328,0.634767,2.223,114.666,0.527339,0.0181802,0.945414,0.0395288,0.0891512,-0.10891,0.202346,5.3791,3.16256,0,3.4,0,11324,48.556,27.54,13372.3
760644756,0.634767,2.223,114.646,0.516922,0.0198162,0.9456,-0.476485,0.485164,-0.104908,0.239348,5.27764,3.36352,0,3.4,0,11324,48.556,27.54,13372.3
760745087,0.634767,2.223,114.619,0.490076,0.0272503,0.947709,-0.988777,0.878009,-0.0787394,0.256524,5.30194,3.12956,0,3.4,0,11324,48.556,27.54,13372.3
760845430,0.634767,2.223,114.605,0.414921,0.0342683,0.948473,-1.4689,1.23861,-0.0671768,0.184926,4.8481,2.84944,0,3.4,0,11324,48.556,27.54,13372.3
760945792,0.634767,2.223,114.596,0.315897,0.0417331,0.949964,-1.86748,1.51763,-0.00851651,0.0186635,3.88035,2.03083,0,3.4,0,11324,48.556,27.54,13372.3
761046155,0.634767,2.223,114.602,0.222681,0.0465556,0.950892,-2.15421,1.71823,0.0262533,-0.00845076,2.8648,0.848143,0,3.4,0,11324,48.556,27.54,13372.3
761146534,0.634767,2.223,114.61,0.147912,0.0476096,0.950961,-2.35652,1.84892,0.0302038,-0.0879948,1.8995,0.337627,0,3.4,0,11324,48.556,27.54,13372.3
761246848,0.634767,2.223,114.625,0.0953515,0.0491687,0.950729,-2.49588,1.93923,0.0300564,-0.0513609,1.22829,0.252929,0,3.4,0,11324,48.556,27.54,13372.3
761347151,0.634767,2.223,114.649,0.0633643,0.0503866,0.950272,-2.59179,1.99162,0.0411386,-0.121291,0.726501,-0.287208,0,3.4,0,11324,48.556,27.54,13372.3
761447508,0.634767,2.223,114.673,0.0449084,0.0490273,0.949654,-2.66784,2.02563,0.0267174,-0.144945,0.565328,-0.237571,0,3.4,0,11324,48.556,27.54,13372.3
761547870,0.634767,2.22301,114.695,0.0302679,0.0465383,0.948977,-2.72034,2.05074,0.0172266,-0.142656,0.387117,-0.261369,0,3.4,0,11324,48.493,27.421,13297.3
761648259,0.634767,2.22301,114.703,0.0218585,0.0431649,0.948832,-2.75489,2.06167,0.00660786,-0.108901,0.206386,-0.0904872,0,3.4,0,11324,48.493,27.421,13297.3
761748596,0.634767,2.22301,114.707,0.0203882,0.0423377,0.948592,-2.7734,2.07251,-0.00787887,-0.0538648,0.162334,-0.228332,0,3.4,0,11324,48.493,27.421,13297.3
