timestamp,lat,log,alt,roll,pitch,yaw,vel_x,vel_y,vel_z,acc_x,acc_y,acc_z,act_vx,act_vy,act_yr,capacity,vol,cur,power
2966498051,0.634769,2.223,96.0435,-0.000170304,0.0209553,0.880134,0.0204298,0.0253865,0.0165462,0.00873774,0.0226965,-0.0200727,-3.7,-2.8,0,12639,49.656,23.807,11821.6
2966598441,0.634769,2.223,96.0426,-0.00101699,0.0209507,0.879934,0.0189603,0.0225394,0.0133246,-0.0433174,0.0145943,-0.0251927,-3.7,-2.8,0,12639,49.641,23.888,11858.2
2966698801,0.634769,2.223,96.0362,-0.00513004,0.0283577,0.878756,0.0252592,0.0280718,0.00867706,0.0714784,-0.0657611,0.124941,-3.7,-2.8,0,12639,49.641,23.888,11858.2
2966801245,0.634769,2.223,96.0264,-0.0879622,0.15015,0.870965,0.0317081,0.00679735,0.050689,-0.401205,-0.329114,0.194334,-3.7,-2.8,0,12639,49.641,23.888,11858.2
2966911499,0.634769,2.223,96.0242,-0.179887,0.257149,0.855717,0.0197411,-0.210037,0.00832107,-1.88488,-1.42802,0.0323746,-3.7,-2.8,0,12639,49.641,23.888,11858.2
2967015232,0.634769,2.223,96.0216,-0.239638,0.321339,0.841132,0.00867369,-0.630122,-0.0089611,-2.63213,-2.06773,1.54436,-3.7,-2.8,0,12639,49.641,23.888,11858.2
2967115610,0.634769,2.223,96.0303,-0.266079,0.349374,0.833769,-0.00401867,-1.05497,-0.00191391,-2.99571,-2.36059,1.73797,-3.7,-2.8,0,12639,49.641,23.888,11858.2
2967215935,0.634769,2.223,96.0377,-0.26918,0.355082,0.832273,-0.0157455,-1.50071,0.00129091,-3.02721,-2.40739,1.86805,-3.7,-2.8,0,12639,49.641,23.888,11858.2
2967316349,0.634769,2.223,96.0384,-0.263793,0.352843,0.833244,-0.0268817,-1.94413,0.00776833,-2.96196,-2.36707,1.93132,-3.7,-2.8,0,12639,49.641,23.888,11858.2
2967416651,0.634769,2.223,96.0316,-0.256063,0.350608,0.834604,-0.0330552,-2.37625,0.0125934,-2.90774,-2.35225,1.77894,-3.7,-2.8,0,12639,49.641,23.888,11858.2
2967516990,0.634769,2.223,96.0365,-0.248912,0.346621,0.836569,-0.0506942,-2.79983,0.0159033,-2.99924,-2.34105,1.4687,-3.7,-2.8,0,12639,49.641,23.888,11858.2
2967617325,0.634769,2.223,96.033,-0.222771,0.318864,0.844493,-0.0775314,-3.20845,0.00448205,-2.87023,-2.07232,1.50913,-3.7,-2.8,0,12596,49.644,23.589,11710.5
2967717691,0.634769,2.223,96.0301,-0.187714,0.278046,0.853931,-0.104204,-3.55749,0.0275406,-2.39011,-1.7276,1.32678,-3.7,-2.8,0,12596,49.644,23.589,11710.5
2967818003,0.634769,2.223,96.0251,-0.152504,0.236054,0.861641,-0.124885,-3.83748,0.0265977,-1.98866,-1.41141,0.837492,-3.7,-2.8,0,12596,49.644,23.589,11710.5
2967918356,0.634769,2.223,96.026,-0.122023,0.198817,0.866861,-0.147404,-4.0494,0.0343432,-1.49799,-0.999447,0.526138,-3.7,-2.8,0,12596,49.644,23.589,11710.5
2968018694,0.634769,2.223,96.0282,-0.0953095,0.168201,0.870891,-0.165385,-4.21752,0.0326757,-1.24648,-0.761338,0.277566,-3.7,-2.8,0,12596,49.644,23.589,11710.5
2968119077,0.634769,2.223,96.0399,-0.0776392,0.141996,0.873344,-0.186993,-4.34121,0.0353929,-0.957812,-0.492336,0.147941,-3.7,-2.8,0,12596,49.644,23.589,11710.5
2968219476,0.634769,2.223,96.0602,-0.0632542,0.122716,0.87534,-0.193606,-4.43655,0.0434084,-0.680195,-0.446836,0.0330135,-3.7,-2.8,0,12596,49.644,23.589,11710.5
2968319841,0.634769,2.223,96.0737,-0.0529215,0.109488,0.876227,-0.203506,-4.49486,0.0319893,-0.494888,-0.252463,-0.0635107,-3.7,-2.8,0,12596,49.644,23.589,11710.5
2968420193,0.634769,2.223,96.0788,-0.0458258,0.100678,0.87634,-0.215232,-4.53814,0.0231648,-0.409119,-0.141053,0.0123956,-3.7,-2.8,0,12596,49.644,23.589,11710.5
2968520534,0.634769,2.223,96.0887,-0.0414874,0.0943162,0.876777,-0.227247,-4.56598,0.014713,-0.334165,-0.0999541,-0.227554,4.3,-0.8,0,12596,49.644,23.589,11710.5
2968620906,0.634769,2.223,96.1033,-0.0295912,0.0579821,0.879746,-0.234925,-4.59321,0.0172171,-0.287907,-0.0723102,0.246164,4.3,-0.8,0,12596,49.625,24.485,12150.7
2968721265,0.634769,2.223,96.1144,0.0410695,-0.166452,0.874514,-0.228548,-4.57194,0.0742765,0.579697,0.244924,0.504546,4.3,-0.8,0,12596,49.625,24.485,12150.7
2968821626,0.634769,2.223,96.1314,0.0916108,-0.339363,0.8629,-0.0988512,-4.2586,0.0579213,3.37324,1.0209,0.0567005,4.3,-0.8,0,12596,49.625,24.485,12150.7
2968921951,0.634769,2.223,96.1453,0.121223,-0.435671,0.854671,0.0800074,-3.82889,-0.0490055,4.28019,1.30069,1.4619,4.3,-0.8,0,12596,49.625,24.485,12150.7
2969022371,0.634769,2.223,96.1427,0.140933,-0.481669,0.850864,0.301066,-3.30373,-0.0945925,4.93395,1.44879,2.3169,4.3,-0.8,0,12596,49.625,24.485,12150.7
2969122738,0.634769,2.223,96.1156,0.144187,-0.492374,0.85155,0.535345,-2.72754,-0.12658,5.10782,1.5764,2.81877,4.3,-0.8,0,12596,49.625,24.485,12150.7
2969223102,0.634769,2.223,96.0803,0.134568,-0.481701,0.854492,0.794967,-2.13842,-0.115288,5.0805,1.39742,3.4019,4.3,-0.8,0,12596,49.625,24.485,12150.7
2969323434,0.634769,2.223,96.0444,0.117124,-0.461931,0.857774,1.04037,-1.56302,-0.0888314,4.79067,1.35284,3.34028,4.3,-0.8,0,12596,49.625,24.485,12150.7
2969423736,0.634769,2.223,96.0087,0.102841,-0.441689,0.860077,1.28849,-1.01628,-0.0580442,4.63279,1.22652,3.18169,4.3,-0.8,0,12596,49.625,24.485,12150.7
2969524100,0.634769,2.223,95.9914,0.0886492,-0.426946,0.861824,1.52749,-0.501082,-0.0301665,4.5184,1.1389,2.6706,4.3,-0.8,0,12596,49.625,24.485,12150.7
2969624418,0.634769,2.223,95.983,0.0766296,-0.413735,0.863861,1.76442,-0.0196452,-0.0122396,4.31295,0.974348,2.34099,4.3,-0.8,0,12596,49.448,27.566,13630.8
2969725723,0.634769,2.223,95.9871,0.0633047,-0.403684,0.866093,1.99412,0.43597,0.00198944,4.21899,0.892891,1.93717,4.3,-0.8,0,12596,49.448,27.566,13630.8
2969831362,0.634769,2.223,96.0123,0.0506884,-0.395287,0.868315,2.22376,0.864477,0.0107245,3.99775,0.709039,1.84748,4.3,-0.8,0,12596,49.448,27.566,13630.8
2969931736,0.634769,2.223,96.036,0.0379271,-0.361452,0.87151,2.45653,1.2635,0.0268665,3.88878,0.528965,1.71425,4.3,-0.8,0,12596,49.448,27.566,13630.8
2970032067,0.634769,2.223,96.0578,0.0257884,-0.308029,0.874477,2.65458,1.60837,0.040623,3.39712,0.448748,1.14538,4.3,-0.8,0,12596,49.448,27.566,13630.8
2970132306,0.634769,2.223,96.0797,0.0157593,-0.249494,0.875887,2.81684,1.88534,0.0448092,2.75807,0.397438,0.802643,4.3,-0.8,0,12596,49.448,27.566,13630.8
2970232685,0.634769,2.223,96.102,0.00496322,-0.197257,0.876931,2.93789,2.09673,0.0546535,2.12752,0.277245,0.381752,4.3,-0.8,0,12596,49.448,27.566,13630.8
2970333049,0.634769,2.223,96.136,-0.00616613,-0.156449,0.877428,3.03349,2.25128,0.0494099,1.68735,0.11974,-0.0881087,4.3,-0.8,0,12596,49.448,27.566,13630.8
2970433407,0.63477,2.223,96.1631,-0.0125506,-0.12623,0.877489,3.10734,2.36342,0.0380445,1.28988,0.000827104,-0.279194,4.3,-0.8,0,12596,49.448,27.566,13630.8
2970533833,0.63477,2.223,96.1856,-0.0133035,-0.103346,0.877273,3.17156,2.4451,0.0206473,1.03805,-0.0482054,-0.212688,-2.1,1.8,0,12596,49.448,27.566,13630.8
2970634179,0.63477,2.223,96.1977,-0.00435134,-0.0645644,0.879354,3.23168,2.5184,0.0144411,0.830393,-0.119016,0.389844,-2.1,1.8,0,12551,49.603,26.868,13327.3
2970734470,0.63477,2.223,96.2169,0.0680664,0.152347,0.885548,3.20213,2.52399,0.0714921,-0.616987,0.344762,0.0242235,-2.1,1.8,0,12551,49.603,26.868,13327.3
2970834860,0.63477,2.223,96.236,0.135383,0.319549,0.903184,2.93122,2.37926,-0.00545315,-2.87784,1.20025,0.00294292,-2.1,1.8,0,12551,49.603,26.868,13327.3
2970935226,0.63477,2.223,96.2492,0.177684,0.419688,0.921711,2.54752,2.16476,-0.0716383,-3.83225,1.51681,1.41934,-2.1,1.8,0,12551,49.603,26.868,13327.3
2971035579,0.63477,2.223,96.258,0.195513,0.4657,0.933416,2.06957,1.89427,-0.0927979,-4.34818,1.753,2.41952,-2.1,1.8,0,12551,49.603,26.868,13327.3
2971135927,0.63477,2.223,96.2601,0.197394,0.473832,0.937434,1.56413,1.60439,-0.0918634,-4.57046,1.86105,2.4492,-2.1,1.8,0,12551,49.603,26.868,13327.3
2971236301,0.63477,2.223,96.2568,0.195951,0.464674,0.936971,1.07038,1.31413,-0.101169,-4.39137,1.69946,2.58405,-2.1,1.8,0,12551,49.603,26.868,13327.3
2971336645,0.63477,2.223,96.2501,0.193275,0.448159,0.935315,0.586796,1.03108,-0.10733,-4.29001,1.65203,2.45291,-2.1,1.8,0,12551,49.603,26.868,13327.3
2971437004,0.63477,2.223,96.2478,0.191854,0.42985,0.932867,0.110875,0.760215,-0.0911786,-4.07279,1.66464,2.38551,-2.1,1.8,0,12551,49.603,26.868,13327.3
2971537361,0.63477,2.223,96.2471,0.192783,0.411595,0.930078,-0.338758,0.50616,-0.075228,-3.93602,1.66845,2.05984,-2.1,1.8,0,12551,49.603,26.868,13327.3
2971637736,0.63477,2.223,96.2435,0.198358,0.388706,0.927382,-0.771443,0.274233,-0.0628107,-3.67767,1.68376,1.92518,-2.1,1.8,0,12551,49.265,30.597,15073.6
2971738104,0.63477,2.223,96.243,0.189733,0.344826,0.919029,-1.18392,0.068532,-0.0696433,-3.31438,1.65806,1.69778,-2.1,1.8,0,12551,49.265,30.597,15073.6
2971838406,0.63477,2.223,96.2423,0.168093,0.285308,0.908296,-1.54773,-0.08747,-0.049367,-2.8287,1.61693,1.07707,-2.1,1.8,0,12551,49.265,30.597,15073.6
2971938756,0.63477,2.223,96.2441,0.142983,0.228505,0.899436,-1.83575,-0.20248,-0.0488566,-2.14138,1.38983,0.602431,-2.1,1.8,0,12551,49.265,30.597,15073.6
2972039125,0.63477,2.223,96.2356,0.117351,0.179678,0.8928,-2.05748,-0.284152,-0.0587696,-1.56708,1.0631,0.427629,-2.1,1.8,0,12551,49.265,30.597,15073.6
2972139554,0.63477,2.223,96.2195,0.096868,0.14331,0.889309,-2.22613,-0.351417,-0.0640697,-1.16352,0.822703,0.353262,-2.1,1.8,0,12551,49.265,30.597,15073.6
2972243160,0.634769,2.223,96.2128,0.0794348,0.11789,0.88691,-2.35136,-0.400873,-0.0589632,-0.859999,0.661275,0.21368,-2.1,1.8,0,12551,49.265,30.597,15073.6
2972343514,0.634769,2.223,96.2026,0.0660059,0.0989052,0.885203,-2.43862,-0.436729,-0.062319,-0.559458,0.451347,0.204954,-2.1,1.8,0,12551,49.265,30.597,15073.6
2972445708,0.634769,2.223,96.1942,0.0560243,0.0845379,0.883988,-2.51069,-0.476547,-0.0564271,-0.5135,0.33281,0.194146,-2.1,1.8,0,12551,49.265,30.597,15073.6
2972553200,0.634769,2.223,96.1816,0.0497676,0.0743865,0.883841,-2.55935,-0.504999,-0.0625289,-0.271415,0.247537,0.112826,0.7,-3.7,0,12551,49.265,30.597,15073.6
2972653566,0.634769,2.223,96.1893,0.031669,0.0577985,0.881786,-2.59084,-0.519439,-0.0463556,-0.232518,0.216659,0.387872,0.7,-3.7,0,12551,49.265,30.597,15073.6
2972753939,0.634769,2.223,96.2035,-0.137251,-0.0518528,0.881691,-2.5694,-0.531779,0.00353868,0.356975,-0.472957,0.306125,0.7,-3.7,0,12551,49.482,26.33,13028.6
2972854286,0.634769,2.223,96.2084,-0.294131,-0.134147,0.899744,-2.28297,-0.590328,-0.0144401,1.45615,-2.73223,-0.21912,0.7,-3.7,0,12551,49.482,26.33,13028.6
2972954698,0.634769,2.223,96.2023,-0.396677,-0.18345,0.918159,-1.87088,-0.667983,-0.106318,1.92229,-3.52077,1.42424,0.7,-3.7,0,12551,49.482,26.33,13028.6
2973055062,0.634769,2.223,96.1922,-0.453209,-0.207589,0.930674,-1.33371,-0.771169,-0.124573,2.21576,-4.06574,2.61984,0.7,-3.7,0,12551,49.482,26.33,13028.6
2973155390,0.634769,2.223,96.1826,-0.462811,-0.210826,0.933111,-0.738135,-0.881529,-0.117157,2.46552,-4.44743,2.78201,0.7,-3.7,0,12551,49.482,26.33,13028.6
2973255678,0.634769,2.223,96.1591,-0.452239,-0.205017,0.931245,-0.153836,-0.989504,-0.11134,2.38262,-4.27174,2.81735,0.7,-3.7,0,12551,49.482,26.33,13028.6
2973356061,0.634769,2.223,96.1246,-0.436982,-0.191572,0.925743,0.416091,-1.09014,-0.101847,2.35511,-4.13925,2.69453,0.7,-3.7,0,12551,49.482,26.33,13028.6
2973456385,0.634769,2.223,96.1111,-0.426256,-0.176171,0.920191,0.964302,-1.19684,-0.0831523,2.1901,-4.0089,2.66557,0.7,-3.7,0,12551,49.482,26.33,13028.6
2973556749,0.634769,2.223,96.1038,-0.401698,-0.153509,0.911869,1.48342,-1.30637,-0.0630638,2.00703,-3.9226,2.20399,0.7,-3.7,0,12551,49.482,26.33,13028.6
2973657067,0.634769,2.223,96.0992,-0.341201,-0.120135,0.900878,1.94515,-1.41789,-0.0377247,1.65998,-3.47231,1.81955,0.7,-3.7,0,12551,49.482,26.33,13028.6
2973757549,0.634769,2.223,96.1033,-0.274521,-0.0878083,0.891879,2.30919,-1.50159,-0.0129066,1.32707,-2.79096,1.20469,0.7,-3.7,0,12551,49.496,26.161,12948.6
2973857921,0.634769,2.223,96.1083,-0.212976,-0.0572057,0.885088,2.58093,-1.56661,-0.00497431,0.923177,-2.13202,0.664964,0.7,-3.7,0,12551,49.496,26.161,12948.6
2973958271,0.634769,2.223,96.1114,-0.165176,-0.0345034,0.881159,2.78232,-1.61582,-0.00195964,0.659782,-1.57169,0.356151,0.7,-3.7,0,12551,49.496,26.161,12948.6
2974059023,0.63477,2.223,96.1201,-0.130303,-0.0185434,0.879253,2.92233,-1.66033,-0.00401371,0.349198,-1.12154,0.135762,0.7,-3.7,0,12551,49.496,26.161,12948.6
2974159432,0.63477,2.223,96.1235,-0.108189,-0.00821778,0.878252,3.02362,-1.68386,-0.00658697,0.291107,-0.810968,-0.0548963,0.7,-3.7,0,12551,49.496,26.161,12948.6
2974259867,0.63477,2.223,96.1264,-0.0966067,0.000210553,0.877795,3.10165,-1.69291,-0.0181478,0.250912,-0.623475,-0.0524256,0.7,-3.7,0,12551,49.496,26.161,12948.6
2974360314,0.63477,2.223,96.1304,-0.0879695,0.00698879,0.877333,3.16036,-1.70765,-0.0177517,0.16899,-0.571122,0.0638031,0.7,-3.7,0,12551,49.496,26.161,12948.6
2974460685,0.63477,2.223,96.1343,-0.0810028,0.0139553,0.877318,3.20592,-1.73196,-0.0168282,-0.00365284,-0.516351,-0.000295106,0.7,-3.7,0,12551,49.496,26.161,12948.6
2974561081,0.63477,2.223,96.1392,-0.076831,0.0158448,0.877322,3.23249,-1.74346,-0.0122238,0.041988,-0.388285,0.0180686,-4,-2.8,0,12551,49.496,26.161,12948.6
2974661447,0.63477,2.223,96.1404,-0.0642323,0.0390745,0.879162,3.25204,-1.75378,-0.0226351,0.0356623,-0.341576,0.201569,-4,-2.8,0,12551,49.496,26.161,12948.6
2974761813,0.63477,2.223,96.144,-0.00174538,0.197753,0.882017,3.2356,-1.78407,0.0257808,-0.714904,-0.0341376,0.230952,-4,-2.8,0,12551,49.504,27.173,13451.7
2974862221,0.63477,2.223,96.1493,0.0431795,0.324996,0.885392,3.0336,-1.90581,-0.0309942,-2.43023,0.646307,-0.0572752,-4,-2.8,0,12551,49.504,27.173,13451.7
2974962565,0.63477,2.223,96.1425,0.066236,0.402118,0.8879,2.73203,-2.10863,-0.0629925,-3.29327,0.833688,1.32667,-4,-2.8,0,12551,49.504,27.173,13451.7
2975062949,0.63477,2.223,96.1336,0.0715498,0.438742,0.887195,2.36323,-2.3503,-0.0649513,-3.72641,0.964434,1.90707,-4,-2.8,0,12551,49.504,27.173,13451.7
2975163295,0.63477,2.223,96.1301,0.0629615,0.447758,0.884159,1.95726,-2.60724,-0.058645,-4.00335,1.1165,2.12872,-4,-2.8,0,12551,49.504,27.173,13451.7
2975263637,0.63477,2.223,96.1241,0.0435767,0.444405,0.87932,1.57508,-2.86923,-0.044366,-3.871,0.942891,2.02277,-4,-2.8,0,12551,49.504,27.173,13451.7
2975363948,0.63477,2.223,96.1186,0.0234827,0.437646,0.874864,1.2104,-3.142,-0.0278525,-3.79995,0.792721,1.94099,-4,-2.8,0,12551,49.504,27.173,13451.7
2975464331,0.63477,2.223,96.1254,0.000446695,0.430898,0.871298,0.883038,-3.42133,-0.0216952,-3.76116,0.531583,1.54995,-4,-2.8,0,12551,49.504,27.173,13451.7
2975564704,0.63477,2.223,96.1344,-0.0167501,0.39319,0.868174,0.575302,-3.69851,-0.0241179,-3.57044,0.355682,1.47503,-4,-2.8,0,12551,49.504,27.173,13451.7
2975667914,0.63477,2.223,96.1462,-0.0300251,0.339987,0.867891,0.3151,-3.95146,0.00891061,-3.08367,0.163952,1.08788,-4,-2.8,0,12551,49.504,27.173,13451.7
2975771096,0.63477,2.223,96.1583,-0.0422049,0.286739,0.868883,0.122022,-4.14723,0.00220644,-2.42486,0.0448534,0.365056,-4,-2.8,0,12551,49.449,26.066,12889.4
2975871472,0.63477,2.223,96.1688,-0.0520299,0.241537,0.870352,-0.0331311,-4.32086,-0.00473381,-1.98833,-0.0686826,0.545795,-4,-2.8,0,12551,49.449,26.066,12889.4
2975971834,0.63477,2.223,96.171,-0.0563257,0.202539,0.871713,-0.13886,-4.46289,-0.00715808,-1.52893,-0.162186,0.148586,-4,-2.8,0,12551,49.449,26.066,12889.4
2976072222,0.63477,2.223,96.1708,-0.0542209,0.173282,0.87297,-0.240171,-4.59754,-0.0162308,-1.15,-0.0978377,0.0583957,-4,-2.8,0,12551,49.449,26.066,12889.4
2976172581,0.63477,2.223,96.1619,-0.0514803,0.148637,0.874222,-0.304213,-4.68443,-0.031251,-0.913948,-0.0505628,0.157719,-4,-2.8,0,12551,49.449,26.066,12889.4
2976272933,0.63477,2.223,96.1567,-0.0482152,0.127465,0.875091,-0.356274,-4.74816,-0.0268073,-0.652545,-0.0316924,0.13454,-4,-2.8,0,12551,49.449,26.066,12889.4
2976373314,0.63477,2.223,96.1595,-0.0475396,0.111871,0.875846,-0.393777,-4.79274,-0.0291069,-0.466414,-0.00601777,0.0876502,-4,-2.8,0,12551,49.449,26.066,12889.4
2976473683,0.63477,2.223,96.1654,-0.0490187,0.100605,0.876852,-0.406437,-4.83587,-0.0333445,-0.344793,-0.164947,0.0287026,-4,-2.8,0,12551,49.449,26.066,12889.4
2976574101,0.63477,2.223,96.1734,-0.0484042,0.0962017,0.877885,-0.412842,-4.8704,-0.031533,-0.293047,-0.145452,0.0272952,2.79203,4.94482,0,12551,49.449,26.066,12889.4
2976674430,0.63477,2.223,96.1777,-0.0347769,0.0740423,0.880776,-0.412902,-4.89801,-0.0334907,-0.299397,-0.147507,0.285484,2.94375,5.04637,0,12551,49.449,26.066,12889.4
2976774800,0.63477,2.223,96.1762,0.0687173,-0.0836797,0.879446,-0.41077,-4.86903,0.00575905,0.5689,0.318081,0.660193,3.07191,5.14454,0,12507,49.419,25.467,12585.5
2976875184,0.63477,2.223,96.176,0.16141,-0.220884,0.860992,-0.371524,-4.596,-0.000861751,2.46256,1.52962,0.0922496,3.03468,5.19471,0,12507,49.419,25.467,12585.5
2976975586,0.63477,2.223,96.1724,0.21831,-0.298227,0.844457,-0.317081,-4.20618,-0.0547262,3.28055,2.12486,0.985044,3.00636,5.23277,0,12507,49.419,25.467,12585.5
2977075934,0.63477,2.223,96.1555,0.249082,-0.342915,0.83314,-0.258707,-3.71578,-0.0801841,3.70017,2.4684,2.02963,2.99266,5.27724,0,12507,49.419,25.467,12585.5
2977176287,0.63477,2.223,96.1207,0.254873,-0.354359,0.828689,-0.184416,-3.19361,-0.115774,4.00369,2.52494,1.87601,3.04173,5.34534,0,12507,49.419,25.467,12585.5
2977276641,0.63477,2.223,96.0901,0.242149,-0.337028,0.831213,-0.102958,-2.66437,-0.1266,3.89115,2.39609,2.3163,3.12926,5.43392,0,12507,49.419,25.467,12585.5
2977376980,0.63477,2.223,96.0647,0.21629,-0.297562,0.838599,-0.0278292,-2.15855,-0.114844,3.71261,2.30445,2.06101,3.26313,5.53496,0,12507,49.419,25.467,12585.5
2977477330,0.63477,2.223,96.0507,0.18682,-0.246089,0.847956,0.0370923,-1.71506,-0.0853999,3.24279,2.07302,1.73132,3.37966,5.61816,0,12507,49.419,25.467,12585.5
2977577665,0.63477,2.223,96.041,0.161667,-0.194137,0.857178,0.0859831,-1.3448,-0.0367797,2.68849,1.72609,1.28875,3.49078,5.68218,0,12507,49.419,25.467,12585.5
2977678996,0.63477,2.223,96.0613,0.146161,-0.151885,0.863201,0.110426,-1.04398,-0.00681371,2.08744,1.44212,1.0459,3.53949,5.7115,0,12507,49.419,25.467,12585.5
2977779364,0.63477,2.223,96.0822,0.203363,-0.158317,0.858885,0.114904,-0.780675,0.0253204,1.84495,1.63274,0.420423,3.50586,5.72999,0,12507,49.437,27.265,13479
2977879858,0.63477,2.223,96.1096,0.263733,-0.174829,0.853157,0.0758532,-0.466744,-8.72426e-05,1.93177,2.24456,0.598927,3.43983,5.72578,0,12507,49.437,27.265,13479
2977980277,0.63477,2.223,96.1414,0.302473,-0.186727,0.848475,-0.000265588,-0.0979079,-0.00257124,2.05491,2.65486,1.16702,3.38935,5.72262,0,12507,49.437,27.265,13479
2978080636,0.63477,2.223,96.1671,0.321559,-0.192313,0.846357,-0.0916437,0.286875,-0.00151813,2.12718,2.84768,1.19003,3.34572,5.69905,0,12507,49.437,27.265,13479
2978180994,0.63477,2.223,96.1776,0.327905,-0.193613,0.845541,-0.190094,0.678019,-0.0106613,2.13833,2.92333,1.37211,3.31407,5.67341,0,12507,49.437,27.265,13479
2978281361,0.63477,2.223,96.1781,0.3272,-0.193105,0.846117,-0.294385,1.07531,-0.0207996,2.11553,2.91778,1.54021,3.28737,5.62768,0,12507,49.437,27.265,13479
2978381668,0.63477,2.223,96.1768,0.323381,-0.19236,0.847247,-0.400956,1.463,-0.0220351,2.13736,2.9177,1.31521,3.26027,5.57575,0,12507,49.437,27.265,13479
2978482019,0.63477,2.223,96.1682,0.325393,-0.192499,0.846873,-0.495727,1.84052,-0.0289117,2.16533,2.80964,1.27215,3.22185,5.50907,0,12507,49.437,27.265,13479
2978582396,0.63477,2.223,96.1582,0.327157,-0.188829,0.84872,-0.604654,2.21082,-0.0402857,2.03885,2.85528,1.39253,3.18997,5.43433,0,12507,49.437,27.265,13479
2978682708,0.63477,2.223,96.1539,0.327752,-0.182275,0.850545,-0.720746,2.57949,-0.035011,1.93876,2.83084,1.44024,3.15748,5.34336,0,12507,49.437,27.265,13479
2978783013,0.63477,2.223,96.1537,0.328062,-0.176687,0.853095,-0.83994,2.92867,-0.0471226,1.90677,2.85496,1.01001,3.11811,5.24392,0,12507,49.437,27.265,13479
2978883376,0.63477,2.223,96.1499,0.331076,-0.169735,0.854884,-0.96464,3.26659,-0.0516702,1.79103,2.74546,1.18021,3.07585,5.13168,0,12507,49.55,23.673,11730
2978983746,0.63477,2.223,96.1456,0.329423,-0.163817,0.857261,-1.08943,3.58706,-0.0632384,1.67066,2.65689,1.10665,3.02549,5.01176,0,12507,49.55,23.673,11730
2979084098,0.63477,2.223,96.1469,0.324106,-0.159916,0.858023,-1.21903,3.89834,-0.0566556,1.5515,2.58813,1.23454,2.96541,4.88105,0,12507,49.55,23.673,11730
2979184474,0.63477,2.223,96.1474,0.308146,-0.150496,0.861666,-1.33523,4.20595,-0.0624627,1.64203,2.58971,1.03723,2.91113,4.74047,0,12507,49.55,23.673,11730
2979284809,0.63477,2.223,96.1505,0.263601,-0.124762,0.868481,-1.43652,4.48033,-0.0410941,1.47237,2.17845,1.08249,2.87806,4.59231,0,12507,49.55,23.673,11730
2979385171,0.63477,2.223,96.1581,0.211354,-0.0994366,0.872898,-1.52423,4.68986,-0.0121849,1.13878,1.79579,0.487311,2.82055,4.44156,0,12507,49.55,23.673,11730
2979485519,0.63477,2.223,96.1643,0.162212,-0.0761826,0.875808,-1.58473,4.83968,-0.00230793,0.878235,1.34903,0.389963,2.75525,4.28468,0,12507,49.55,23.673,11730
2979585961,0.63477,2.223,96.1728,0.112644,-0.0549039,0.877994,-1.62478,4.93881,-0.00518774,0.603071,0.859837,0.345008,2.67547,4.12269,0,12507,49.55,23.673,11730
2979686327,0.63477,2.223,96.1883,0.0648089,-0.0352086,0.879325,-1.63826,4.98982,0.0111379,0.448887,0.315222,0.0922477,2.59631,3.96407,0,12507,49.55,23.673,11730
2979786690,0.63477,2.223,96.2106,0.0332858,-0.0211075,0.880674,-1.6242,4.98477,0.00598178,0.212162,-0.214285,-0.369715,2.50929,3.80143,0,12507,49.55,23.673,11730
2979887041,0.63477,2.223,96.2234,0.00190655,-0.00516818,0.880729,-1.59755,4.95645,-0.00448727,-0.000539452,-0.492759,-0.151837,2.42388,3.65038,0,12505,49.384,27.521,13591
2979987407,0.63477,2.223,96.2317,-0.0248686,0.00936465,0.880798,-1.56572,4.89096,-0.0243571,-0.254241,-0.715495,-0.200095,2.33178,3.4961,0,12505,49.384,27.521,13591
2980087766,0.63477,2.223,96.2327,-0.0432952,0.0242406,0.880499,-1.52402,4.80832,-0.0329971,-0.303781,-0.833606,-0.32126,2.24558,3.35391,0,12505,49.384,27.521,13591
2980188123,0.63477,2.223,96.2324,-0.0552498,0.0383034,0.880797,-1.48409,4.71654,-0.0473368,-0.364561,-0.929163,-0.135015,2.15582,3.20653,0,12505,49.384,27.521,13591
2980288481,0.63477,2.223,96.2229,-0.0638761,0.0493769,0.880472,-1.43923,4.59206,-0.0675762,-0.550794,-1.03921,0.0923269,2.07502,3.07949,0,12505,49.384,27.521,13591
2980388833,0.63477,2.223,96.2026,-0.0749128,0.055691,0.880109,-1.39576,4.46227,-0.0729483,-0.646387,-1.1183,0.0590744,1.99117,2.94996,0,12505,49.384,27.521,13591
2980489177,0.634769,2.223,96.1874,-0.0758956,0.0556051,0.880192,-1.34872,4.3145,-0.0762345,-0.718173,-1.16312,0.218634,1.9192,2.8404,0,12505,49.384,27.521,13591
2980589580,0.634769,2.223,96.1643,-0.0815024,0.0554927,0.880361,-1.30728,4.18473,-0.0684024,-0.587441,-1.0698,0.212324,1.84338,2.72447,0,12505,49.384,27.521,13591
2980689958,0.634769,2.223,96.1528,-0.0834279,0.0554436,0.8793,-1.2484,4.03479,-0.0769167,-0.647944,-1.33451,0.351895,1.77371,2.62898,0,12505,49.384,27.521,13591
2980790316,0.634769,2.223,96.1442,-0.0766606,0.0541578,0.879509,-1.1856,3.89839,-0.0800298,-0.580236,-1.26696,-0.182075,1.70436,2.52559,0,12505,49.384,27.521,13591
2980890671,0.634769,2.223,96.1303,-0.0655584,0.0534904,0.878929,-1.13345,3.77312,-0.0999507,-0.540314,-1.08197,0.00445916,1.63855,2.43498,0,12505,49.356,26.553,13105.5
2980991023,0.634769,2.223,96.1211,-0.0602163,0.0554617,0.878305,-1.09387,3.64897,-0.0855257,-0.61572,-0.975016,0.461642,1.56889,2.33697,0,12505,49.356,26.553,13105.5
2981092538,0.634769,2.223,96.1207,-0.0601052,0.0546319,0.878229,-1.05315,3.51545,-0.0652138,-0.523239,-0.808991,0.379461,1.5073,2.25159,0,12505,49.356,26.553,13105.5
2981196287,0.634769,2.223,96.1348,-0.0629409,0.0559483,0.878444,-1.01559,3.39286,-0.0414532,-0.593166,-0.919379,0.243568,1.44543,2.16302,0,12505,49.356,26.553,13105.5
2981296641,0.634769,2.223,96.1393,-0.0607662,0.0574066,0.878725,-0.975984,3.27529,-0.0386718,-0.56659,-0.874652,0.146572,1.38403,2.07946,0,12505,49.356,26.553,13105.5
2981397055,0.634769,2.223,96.1403,-0.0576708,0.0622607,0.878153,-0.949078,3.17515,-0.0233346,-0.495444,-0.645918,0.334225,1.31954,1.99243,0,12505,49.356,26.553,13105.5
2981497404,0.634769,2.223,96.1426,-0.0615249,0.0732601,0.87822,-0.925843,3.06216,-0.00500085,-0.682308,-0.81882,0.0519325,1.25797,1.90686,0,12505,49.356,26.553,13105.5
2981597815,0.634769,2.223,96.1398,-0.0610958,0.0789094,0.877621,-0.908979,2.93956,-0.0168844,-0.820521,-0.792833,-0.00201526,1.19785,1.82295,0,12505,49.356,26.553,13105.5
2981698201,0.634769,2.223,96.1377,-0.0585402,0.0792704,0.877711,-0.901597,2.81712,-0.0312079,-0.82081,-0.745243,0.157636,1.14114,1.74155,0,12505,49.356,26.553,13105.5
2981798597,0.634769,2.223,96.1446,-0.0579402,0.0739969,0.877326,-0.888705,2.69622,-0.0240082,-0.746835,-0.754593,0.356495,1.08716,1.66313,0,12505,49.356,26.553,13105.5
2981899052,0.634769,2.223,96.1501,-0.0598781,0.0663541,0.877033,-0.871571,2.58206,-0.0209366,-0.741035,-0.750272,-0.0703025,1.03621,1.58608,0,12505,49.515,24.873,12315.9
2982000594,0.634769,2.223,96.1492,-0.064179,0.0630209,0.877319,-0.847759,2.47605,-0.0310004,-0.619499,-0.819156,0.0689326,0.988862,1.51059,0,12505,49.515,24.873,12315.9
2982105044,0.634769,2.223,96.1537,-0.0697843,0.059893,0.877219,-0.820659,2.37707,-0.0384397,-0.633208,-0.800066,-0.174912,0.943936,1.43632,0,12505,49.515,24.873,12315.9
2982205444,0.634769,2.223,96.1615,-0.0692883,0.051947,0.877512,-0.785883,2.26717,-0.0370256,-0.605459,-0.924989,0.0987064,0.901894,1.36552,0,12505,49.515,24.873,12315.9
2982305805,0.634769,2.223,96.1605,-0.0719361,0.0485968,0.877666,-0.750368,2.1834,-0.0382613,-0.42148,-0.775778,0.00129954,0.861327,1.29737,0,12505,49.515,24.873,12315.9
2982406156,0.634769,2.223,96.1534,-0.0718472,0.0439099,0.877677,-0.697546,2.09861,-0.0426974,-0.281864,-0.903425,0.0457074,0.821992,1.23317,0,12505,49.515,24.873,12315.9
2982506516,0.634769,2.223,96.1451,-0.0671852,0.038707,0.878279,-0.641478,2.0191,-0.0543874,-0.22353,-0.927134,0.169226,0.783306,1.17006,0,12505,49.515,24.873,12315.9
2982606914,0.634769,2.223,96.1427,-0.0626985,0.0402158,0.878087,-0.595734,1.94285,-0.0470067,-0.353772,-0.893968,-0.116442,0.744516,1.11088,0,12505,49.515,24.873,12315.9
2982707269,0.634769,2.223,96.1407,-0.0548495,0.0440233,0.87812,-0.563238,1.8633,-0.0425975,-0.450735,-0.758087,0.0864728,0.704452,1.05096,0,12505,49.515,24.873,12315.9
2982807645,0.634769,2.223,96.1457,-0.048762,0.0453718,0.878306,-0.538419,1.78265,-0.0347758,-0.498813,-0.730483,-0.269643,0.666952,0.995167,0,12505,49.515,24.873,12315.9
2982908054,0.634769,2.223,96.1439,-0.0471133,0.0464656,0.878441,-0.513155,1.71312,-0.037603,-0.385693,-0.661461,0.15158,0.631394,0.942398,0,12505,49.515,24.873,12315.9
2983008419,0.634769,2.223,96.1465,-0.045797,0.0448209,0.878326,-0.4895,1.64259,-0.0212058,-0.351291,-0.610467,0.113151,0.597926,0.893311,0,12505,49.522,24.873,12317.6
2983108776,0.634769,2.223,96.1559,-0.0464171,0.0432974,0.878279,-0.460554,1.57198,-0.0180855,-0.406178,-0.614902,-0.127268,0.564458,0.847134,0,12505,49.522,24.873,12317.6
2983209131,0.634769,2.223,96.1621,-0.0451721,0.0435618,0.878143,-0.43073,1.50553,-0.0281665,-0.331637,-0.657879,-0.0967719,0.532479,0.803392,0,12505,49.522,24.873,12317.6
2983310715,0.634769,2.223,96.1595,-0.040941,0.0449664,0.878611,-0.408296,1.43951,-0.0295944,-0.361434,-0.610718,0.0547597,0.501964,0.759933,0,12505,49.522,24.873,12317.6
2983415718,0.634769,2.223,96.1561,-0.0410659,0.0435835,0.878706,-0.376064,1.36611,-0.0344074,-0.305019,-0.595669,-0.0651227,0.473171,0.718752,0,12505,49.522,24.873,12317.6
2983516072,0.634769,2.223,96.1477,-0.0396952,0.0464164,0.878366,-0.349769,1.31199,-0.0404917,-0.296919,-0.549127,0.0827773,0.443651,0.677827,0,12505,49.522,24.873,12317.6
2983616405,0.634769,2.223,96.1352,-0.039636,0.048582,0.878524,-0.325082,1.25397,-0.0406429,-0.322555,-0.545389,0.125791,0.415926,0.639426,0,12505,49.522,24.873,12317.6
2983716772,0.634769,2.223,96.1252,-0.0404063,0.0503174,0.878232,-0.319112,1.19416,-0.0330771,-0.400982,-0.418735,0.191201,0.387903,0.600773,0,12505,49.522,24.873,12317.6
2983817145,0.634769,2.223,96.1187,-0.0438267,0.0520939,0.878209,-0.308353,1.13912,-0.0212254,-0.366349,-0.485065,0.0943279,0.362208,0.564907,0,12505,49.522,24.873,12317.6
2983917447,0.634769,2.223,96.113,-0.0459383,0.0530267,0.878158,-0.297555,1.08108,-0.0309187,-0.392303,-0.484602,-0.0697647,0.338045,0.527726,0,12505,49.522,24.873,12317.6
2984017813,0.634769,2.223,96.1025,-0.0463723,0.0516179,0.87818,-0.288612,1.02304,-0.0316449,-0.37032,-0.483133,0.182768,0.315799,0.493932,0,12505,49.531,23.122,11452.6
2984118177,0.634769,2.223,96.0986,-0.0471966,0.0483939,0.878289,-0.276575,0.955718,-0.0208263,-0.357556,-0.543072,0.172983,0.294712,0.460836,0,12505,49.531,23.122,11452.6
2984218542,0.634769,2.223,96.0995,-0.045867,0.047535,0.878252,-0.256148,0.903558,-0.01484,-0.256857,-0.549655,0.183469,0.275203,0.431259,0,12505,49.531,23.122,11452.6
2984318891,0.634769,2.223,96.1049,-0.0446231,0.0472487,0.878055,-0.242802,0.851478,-0.0101707,-0.260309,-0.493218,0.0742765,0.258061,0.401956,0,12505,49.531,23.122,11452.6
2984419237,0.634769,2.223,96.1007,-0.042184,0.0469958,0.878065,-0.228792,0.803951,-0.0172543,-0.267661,-0.474108,0.0738,0.241995,0.375551,0,12505,49.531,23.122,11452.6
2984519635,0.634769,2.223,96.0936,-0.0384592,0.0471827,0.878046,-0.217295,0.754023,-0.0135114,-0.305179,-0.431351,0.0723518,0.226547,0.350449,0,12505,49.531,23.122,11452.6
2984620055,0.634769,2.223,96.0902,-0.0353451,0.0464681,0.878174,-0.211264,0.710339,-0.0146377,-0.289052,-0.375911,0.0898558,0.211763,0.327961,0,12505,49.531,23.122,11452.6
2984720427,0.634769,2.223,96.0805,-0.0348996,0.0458656,0.878289,-0.204586,0.6771,-0.0139636,-0.189919,-0.320321,0.0518023,0.198505,0.305179,0,12505,49.531,23.122,11452.6
2984820796,0.634769,2.223,96.0756,-0.0360118,0.0455494,0.878452,-0.199053,0.639429,-0.00835536,-0.212419,-0.334353,-0.109512,-3.7,-1.8,0,12505,49.531,23.122,11452.6
2984921159,0.634769,2.223,96.0794,-0.029563,0.0395223,0.878509,-0.187581,0.604125,-0.0041435,-0.214641,-0.387968,0.00888846,-3.7,-1.8,0,12505,49.531,23.122,11452.6
2985021491,0.634769,2.223,96.0791,-0.0312718,0.0413371,0.878457,-0.174779,0.585072,-0.00525565,-0.0383785,-0.263961,0.001092,-3.7,-1.8,0,12505,49.531,23.271,11526.4
2985121862,0.634769,2.223,96.0735,-0.0380226,0.046317,0.878137,-0.168158,0.553176,-0.00512047,-0.198021,-0.262983,0.207514,-3.7,-1.8,0,12505,49.531,23.271,11526.4
2985222178,0.634769,2.223,96.063,-0.043273,0.0505639,0.87801,-0.158763,0.517865,-0.00770141,-0.22862,-0.303103,0.0896636,-3.7,-1.8,0,12505,49.531,23.271,11526.4
2985322526,0.634769,2.223,96.0515,-0.0474322,0.0540238,0.877662,-0.152153,0.46752,-0.00898914,-0.350492,-0.407195,0.153282,-3.7,-1.8,0,12505,49.531,23.271,11526.4
2985422873,0.634769,2.223,96.0419,-0.0487504,0.0549027,0.877552,-0.139148,0.419562,-0.00124261,-0.301215,-0.433057,0.13178,-3.7,-1.8,0,12505,49.531,23.271,11526.4
2985523218,0.634769,2.223,96.043,-0.0514285,0.0549225,0.877699,-0.133821,0.372033,0.00175381,-0.320894,-0.347807,0.05078,-3.7,-1.8,0,12505,49.531,23.271,11526.4
2985623572,0.634769,2.223,96.0495,-0.0537471,0.0524911,0.877911,-0.128563,0.321292,0.00651278,-0.389272,-0.38426,0.0310933,-3.7,-1.8,0,12505,49.531,23.271,11526.4
2985723919,0.634769,2.223,96.0517,-0.0563638,0.0492449,0.878056,-0.115822,0.272568,4.47314e-06,-0.292877,-0.480977,-0.0638655,-3.7,-1.8,0,12505,49.531,23.271,11526.4
2985824311,0.634769,2.223,96.0537,-0.0546533,0.0469975,0.878155,-0.102205,0.226009,0.0108025,-0.258336,-0.398656,0.241542,-3.7,-1.8,0,12505,49.531,23.271,11526.4
2985924643,0.634769,2.223,96.0586,-0.0572817,0.0560637,0.8764,-0.0879175,0.179798,0.0211369,-0.21752,-0.414081,0.273357,-3.7,-1.8,0,12505,49.531,23.271,11526.4
2986025001,0.634769,2.223,96.0624,-0.102952,0.162554,0.870852,-0.06501,0.125085,0.0431761,-0.505955,-0.632281,0.0497061,-3.7,-1.8,0,12505,49.531,23.271,11526.4
2986125345,0.634769,2.223,96.0614,-0.144879,0.266434,0.85965,-0.101548,-0.0654994,-0.0101566,-1.84901,-1.00072,0.146055,-3.7,-1.8,0,12505,49.531,23.271,11526.4
2986226786,0.634769,2.223,96.0559,-0.173806,0.332968,0.849065,-0.172073,-0.364767,-0.0223613,-2.66928,-1.31882,1.09557,-3.7,-1.8,0,12505,49.531,23.271,11526.4
2986328502,0.634769,2.223,96.0605,-0.189593,0.365032,0.842413,-0.25182,-0.729465,-0.0119626,-2.98416,-1.5398,1.57269,-3.7,-1.8,0,12505,49.531,23.271,11526.4
2986428845,0.634769,2.223,96.062,-0.19554,0.3735,0.840128,-0.350793,-1.116,-0.00373607,-3.2327,-1.52615,1.6311,-3.7,-1.8,0,12505,49.531,23.271,11526.4
2986529195,0.634769,2.223,96.0558,-0.196238,0.370959,0.839988,-0.443876,-1.50443,-0.00136739,-3.20992,-1.57054,1.62956,-3.7,-1.8,0,12505,49.489,23.655,11706.6
2986629559,0.634769,2.223,96.0474,-0.198197,0.366787,0.840375,-0.532895,-1.88165,0.00185459,-3.11219,-1.5491,1.59159,-3.7,-1.8,0,12505,49.489,23.655,11706.6
2986729907,0.634769,2.223,96.0411,-0.201392,0.36073,0.841198,-0.618274,-2.24418,0.00688545,-2.9567,-1.49511,1.43292,-3.7,-1.8,0,12505,49.489,23.655,11706.6
2986830289,0.634769,2.223,96.0442,-0.195787,0.338813,0.84527,-0.696853,-2.60559,-0.0107937,-2.99305,-1.52901,1.24717,4.7,3.1,0,12505,49.489,23.655,11706.6
2986930694,0.634769,2.223,96.0353,-0.167753,0.280378,0.85773,-0.761082,-2.95187,0.00274061,-2.57169,-1.47342,1.52839,4.7,3.1,0,12505,49.489,23.655,11706.6
2987031073,0.634769,2.223,96.0269,-0.0317117,0.0385728,0.881784,-0.80895,-3.23711,0.0545967,-1.89277,-1.16047,1.14542,4.7,3.1,0,12505,49.489,23.655,11706.6
2987131464,0.634769,2.223,96.0535,0.130883,-0.218012,0.865201,-0.773601,-3.13428,0.11548,1.4971,0.680402,0.453103,4.7,3.1,0,12505,49.489,23.655,11706.6
2987231806,0.634769,2.223,96.0636,0.223161,-0.345854,0.840482,-0.709079,-2.75135,0.0457795,3.51168,2.08612,0.672179,4.7,3.1,0,12505,49.489,23.655,11706.6
2987332213,0.634769,2.223,96.0673,0.274217,-0.404316,0.82574,-0.631154,-2.24105,-0.0290816,4.21465,2.49901,2.01532,4.7,3.1,0,12505,49.489,23.655,11706.6
2987432612,0.634769,2.223,96.0575,0.283758,-0.421371,0.82195,-0.548634,-1.64916,-0.0477078,4.48997,2.70213,2.77773,4.7,3.1,0,12505,49.489,23.655,11706.6
2987532974,0.634769,2.223,96.0387,0.271144,-0.423512,0.82192,-0.451167,-1.04548,-0.0603343,4.58757,2.64666,2.85687,4.7,3.1,0,12419,49.452,24.816,12272
2987633330,0.634769,2.223,96.0316,0.25152,-0.419252,0.823745,-0.33819,-0.446843,-0.0478324,4.50912,2.54039,3.02261,4.7,3.1,0,12419,49.452,24.816,12272
2987733682,0.634769,2.223,96.0277,0.232166,-0.409554,0.826937,-0.200462,0.133952,-0.0211079,4.44716,2.20851,2.91637,4.7,3.1,0,12419,49.452,24.816,12272
2987834039,0.634769,2.223,96.0311,0.217047,-0.392599,0.831783,-0.0570265,0.678676,-0.00656879,4.27202,1.94927,2.54591,4.7,3.1,0,12419,49.452,24.816,12272
2987935469,0.634769,2.223,96.0356,0.211891,-0.37479,0.836043,0.0902928,1.28513,0.00506386,3.86968,1.90095,2.15891,4.7,3.1,0,12419,49.452,24.816,12272
2988037357,0.634769,2.223,96.0389,0.212486,-0.360581,0.83949,0.195856,1.76276,0.00344422,3.71324,1.85037,1.77912,4.7,3.1,0,12419,49.452,24.816,12272
2988139148,0.634769,2.223,96.0482,0.215671,-0.347083,0.841582,0.29367,2.23771,0.00699589,3.47669,1.84713,2.09566,4.7,3.1,0,12419,49.452,24.816,12272
2988239525,0.634769,2.223,96.0662,0.21895,-0.334304,0.843273,0.369859,2.69033,0.019981,3.30987,1.89361,1.67789,4.7,3.1,0,12419,49.452,24.816,12272
2988339829,0.634769,2.223,96.0742,0.223728,-0.322692,0.844964,0.425019,3.12149,0.0151841,3.16077,1.96079,1.32503,4.7,3.1,0,12419,49.452,24.816,12272
2988440225,0.634769,2.223,96.0835,0.223421,-0.309027,0.847368,0.469665,3.5341,0.00668505,2.9855,1.94739,1.39411,4.7,3.1,0,12419,49.452,24.816,12272
2988540583,0.634769,2.223,96.0904,0.199559,-0.269207,0.854746,0.498865,3.93116,0.00874999,2.75827,1.9255,1.28233,4.7,3.1,0,12419,49.356,27.351,13499.4
2988640949,0.634769,2.223,96.091,0.171014,-0.228721,0.862167,0.519561,4.25407,0.0159674,2.27219,1.65793,0.914008,4.7,3.1,0,12419,49.356,27.351,13499.4
2988741292,0.634769,2.223,96.0975,0.144617,-0.19068,0.868348,0.53522,4.52231,0.0180864,1.89799,1.31487,0.593226,4.7,3.1,0,12419,49.356,27.351,13499.4
2988841668,0.634769,2.223,96.1114,0.123355,-0.156433,0.872423,0.540987,4.73287,0.0156223,1.45689,1.06365,0.515054,2.3,-3.9,0,12419,49.356,27.351,13499.4
2988942782,0.634769,2.223,96.1311,0.073843,-0.118225,0.87872,0.536048,4.90485,0.0240344,1.21117,0.961577,0.590404,2.3,-3.9,0,12419,49.356,27.351,13499.4
2989051379,0.634769,2.223,96.1525,-0.16158,0.00941431,0.8822,0.564781,5.00912,0.0916251,0.736308,-0.0266242,0.504165,2.3,-3.9,0,12419,49.356,27.351,13499.4
2989151766,0.634769,2.223,96.1714,-0.335673,0.0950592,0.861079,0.70039,4.80484,0.0626215,-0.803899,-2.78018,-0.285396,2.3,-3.9,0,12419,49.356,27.351,13499.4
2989252130,0.634769,2.223,96.1887,-0.432179,0.137884,0.842698,0.937082,4.37928,-0.0214112,-1.4177,-3.87796,1.39839,2.3,-3.9,0,12419,49.356,27.351,13499.4
2989352468,0.634769,2.223,96.2093,-0.476423,0.15197,0.832567,1.18871,3.92977,-0.0500792,-1.59336,-4.37671,2.11522,2.3,-3.9,0,12419,49.356,27.351,13499.4
2989452778,0.634769,2.223,96.2089,-0.488551,0.154758,0.827812,1.45308,3.45494,-0.0794342,-1.56728,-4.42401,2.5036,2.3,-3.9,0,12419,49.356,27.351,13499.4
2989553122,0.634769,2.223,96.1898,-0.480719,0.149078,0.829209,1.72456,2.97322,-0.105257,-1.53452,-4.54662,2.49802,2.3,-3.9,0,12419,49.285,28.779,14183.7
2989653476,0.634769,2.223,96.1744,-0.460976,0.135231,0.834494,2.00478,2.50157,-0.0979518,-1.38734,-4.43218,2.56936,2.3,-3.9,0,12419,49.285,28.779,14183.7
2989753863,0.634769,2.223,96.159,-0.44621,0.121896,0.839311,2.27302,2.04045,-0.076093,-1.36252,-4.24656,2.45712,2.3,-3.9,0,12419,49.285,28.779,14183.7
2989854234,0.634769,2.223,96.1449,-0.432168,0.103325,0.846242,2.53408,1.60242,-0.0609289,-1.25214,-4.01158,2.26287,2.3,-3.9,0,12419,49.285,28.779,14183.7
2989954957,0.634769,2.223,96.1261,-0.419749,0.0812632,0.85379,2.78996,1.21191,-0.0564791,-0.951249,-3.71648,2.0186,2.3,-3.9,0,12419,49.285,28.779,14183.7
2990055360,0.634769,2.223,96.1105,-0.411434,0.0600734,0.860663,3.06292,0.852671,-0.0521575,-0.670826,-3.60215,2.1635,2.3,-3.9,0,12419,49.285,28.779,14183.7
2990155733,0.634769,2.223,96.1012,-0.397713,0.0448702,0.865803,3.34223,0.516024,-0.0489588,-0.54949,-3.66246,1.57957,2.3,-3.9,0,12419,49.285,28.779,14183.7
2990256081,0.634769,2.223,96.0952,-0.348459,0.0295608,0.870932,3.6144,0.215319,-0.0360078,-0.328982,-3.22838,1.75525,2.3,-3.9,0,12419,49.285,28.779,14183.7
2990356420,0.63477,2.223,96.0966,-0.294534,0.0199969,0.87391,3.84229,-0.0223619,-0.00908881,-0.190265,-2.72867,1.15083,2.3,-3.9,0,12419,49.285,28.779,14183.7
2990456769,0.63477,2.223,96.1062,-0.243898,0.0128082,0.875856,4.01675,-0.201501,-0.00724829,-0.145602,-2.09761,0.683375,2.3,-3.9,0,12419,49.285,28.779,14183.7
2990557073,0.63477,2.223,96.1229,-0.20277,0.00722145,0.877395,4.15467,-0.343521,-0.000538919,-0.0951025,-1.72334,0.260034,2.3,-3.9,0,12419,49.24,28.524,14045.2
2990657371,0.63477,2.223,96.1358,-0.172469,0.00283771,0.878616,4.25791,-0.445637,-0.00784982,-0.0520673,-1.26446,0.249013,2.3,-3.9,0,12419,49.24,28.524,14045.2
2990757739,0.63477,2.223,96.1529,-0.148442,-0.00163885,0.879283,4.34502,-0.521629,-0.0108157,0.00563369,-1.06601,0.144737,2.3,-3.9,0,12419,49.24,28.524,14045.2
2990858980,0.63477,2.223,96.1706,-0.129328,-0.0039811,0.880137,4.41194,-0.583512,-0.00541575,-0.0686569,-0.850459,-0.282658,3.5,3.2,0,12419,49.24,28.524,14045.2
2990959361,0.63477,2.223,96.1775,-0.0799318,-0.00604434,0.877513,4.46983,-0.61806,-0.0248383,0.0457464,-0.73107,0.068158,3.5,3.2,0,12419,49.24,28.524,14045.2
2991060980,0.63477,2.223,96.1841,0.15599,-0.03415,0.875471,4.48028,-0.607863,0.0341583,0.131686,0.355969,0.420682,3.5,3.2,0,12419,49.24,28.524,14045.2
2991167176,0.63477,2.223,96.1916,0.343823,-0.0548801,0.870747,4.28648,-0.379919,-0.000409164,0.527719,3.24349,-0.12726,3.5,3.2,0,12419,49.24,28.524,14045.2
2991267556,0.63477,2.223,96.1873,0.448519,-0.064516,0.866813,3.99426,-0.0483356,-0.0744251,0.60706,4.12907,1.45738,3.5,3.2,0,12419,49.24,28.524,14045.2
2991367938,0.63477,2.223,96.1759,0.493459,-0.0667116,0.866663,3.61351,0.365111,-0.105532,0.593163,4.7896,2.52827,3.5,3.2,0,12419,49.24,28.524,14045.2
2991468342,0.63477,2.223,96.1638,0.496845,-0.0644994,0.868551,3.18376,0.812328,-0.107236,0.53015,5.09215,2.93116,3.5,3.2,0,12419,49.24,28.524,14045.2
2991568635,0.63477,2.223,96.1482,0.483555,-0.0653936,0.869042,2.75773,1.25298,-0.0880629,0.509856,5.01346,2.97929,3.5,3.2,0,12419,49.24,28.524,14045.2
2991668954,0.63477,2.223,96.1434,0.468157,-0.0692671,0.868296,2.35844,1.67296,-0.0764715,0.522957,4.78409,2.58506,3.5,3.2,0,12419,49.343,27.018,13331.5
2991769294,0.63477,2.223,96.143,0.451093,-0.0760938,0.866163,1.97517,2.07929,-0.0595953,0.487963,4.57511,2.37652,3.5,3.2,0,12419,49.343,27.018,13331.5
2991869648,0.63477,2.223,96.1429,0.434631,-0.0847135,0.864079,1.62384,2.48063,-0.0541283,0.693179,4.29362,2.2872,3.5,3.2,0,12419,49.343,27.018,13331.5
2991969940,0.63477,2.223,96.1391,0.418934,-0.0918264,0.861815,1.29454,2.87396,-0.0463404,0.760277,4.10577,2.11837,3.5,3.2,0,12419,49.343,27.018,13331.5
2992071470,0.63477,2.223,96.137,0.374798,-0.090284,0.863766,0.992243,3.25984,-0.0326893,0.906269,3.87074,1.82858,3.5,3.2,0,12419,49.343,27.018,13331.5
2992175020,0.63477,2.223,96.1368,0.308486,-0.0815938,0.867064,0.696595,3.64834,-0.0126224,0.751911,3.09116,1.3453,3.5,3.2,0,12419,49.343,27.018,13331.5
2992275372,0.63477,2.223,96.1339,0.24483,-0.0738135,0.870276,0.504048,3.90326,-0.0116882,0.668349,2.51701,0.908019,3.5,3.2,0,12419,49.343,27.018,13331.5
2992375687,0.63477,2.223,96.1391,0.191583,-0.065004,0.872431,0.366748,4.11281,-0.00854381,0.650265,1.91702,0.602119,3.5,3.2,0,12419,49.343,27.018,13331.5
2992476096,0.63477,2.223,96.1474,0.151652,-0.056016,0.874522,0.264189,4.26605,-0.00523935,0.540175,1.43324,0.043861,3.5,3.2,0,12419,49.343,27.018,13331.5
2992576463,0.63477,2.223,96.1562,0.120982,-0.0478635,0.876298,0.190157,4.38222,-0.0195137,0.419659,1.06059,0.00555868,3.5,3.2,0,12419,49.343,27.018,13331.5
2992676775,0.63477,2.223,96.1627,0.0988429,-0.0404849,0.877327,0.131431,4.47003,-0.0159149,0.262248,0.798172,0.0776946,3.5,3.2,0,12419,49.286,26.798,13207.7
2992777197,0.63477,2.223,96.1781,0.082038,-0.0353554,0.878637,0.0795836,4.53178,-0.0206809,0.14365,0.658734,-0.0437876,3.5,3.2,0,12419,49.286,26.798,13207.7
2992878956,0.63477,2.223,96.1843,0.0697592,-0.0309447,0.878683,0.0478409,4.58576,-0.0283719,0.249867,0.566583,-0.230868,1.9,3.5,0,12419,49.286,26.798,13207.7
2992979332,0.63477,2.223,96.1829,0.0671747,0.00432069,0.880221,0.0368703,4.62729,-0.0253171,0.365637,0.287012,0.655944,1.9,3.5,0,12419,49.286,26.798,13207.7
2993079686,0.63477,2.223,96.1801,0.0791037,0.119418,0.882999,-0.0133807,4.62509,0.00563674,-0.601919,0.422409,-0.167126,1.9,3.5,0,12419,49.286,26.798,13207.7
2993180088,0.63477,2.223,96.1794,0.0951648,0.200444,0.889816,-0.15256,4.53343,-0.0473775,-1.63683,0.584007,-0.0573195,1.9,3.5,0,12419,49.286,26.798,13207.7
2993280444,0.63477,2.223,96.1769,0.101155,0.231317,0.89457,-0.352825,4.38836,-0.0577835,-2.23876,0.721751,0.539712,1.9,3.5,0,12419,49.286,26.798,13207.7
2993380811,0.63477,2.223,96.1744,0.0983215,0.221994,0.896525,-0.557411,4.23196,-0.0522045,-2.30758,0.602962,0.595178,1.9,3.5,0,12419,49.286,26.798,13207.7
2993481162,0.63477,2.223,96.1692,0.0946281,0.192176,0.895513,-0.737417,4.09477,-0.0607828,-2.03881,0.567027,0.472749,1.9,3.5,0,12419,49.286,26.798,13207.7
2993581497,0.63477,2.223,96.1597,0.0867217,0.156437,0.892888,-0.887994,3.98406,-0.0628922,-1.65283,0.544439,0.518903,1.9,3.5,0,12419,49.286,26.798,13207.7
2993681897,0.63477,2.223,96.1519,0.0790603,0.123991,0.890151,-1.01725,3.89452,-0.0540709,-1.32747,0.535116,0.325057,1.9,3.5,0,12375,49.173,29.678,14593.6
2993782258,0.63477,2.223,96.1483,0.0750081,0.0943017,0.88714,-1.1146,3.82242,-0.0493481,-0.965372,0.370502,0.370463,1.9,3.5,0,12375,49.173,29.678,14593.6
2993882631,0.63477,2.223,96.142,0.071055,0.0706916,0.885073,-1.19719,3.77373,-0.0333719,-0.768858,0.396464,-0.174004,1.9,3.5,0,12375,49.173,29.678,14593.6
2993982983,0.63477,2.223,96.1365,0.0688311,0.0524735,0.882734,-1.2423,3.74299,-0.0422742,-0.361216,0.260828,0.199409,1.9,3.5,0,12375,49.173,29.678,14593.6
2994083323,0.63477,2.223,96.132,0.0714049,0.0386092,0.881001,-1.28138,3.71279,-0.0378047,-0.338254,0.256335,-0.148348,1.9,3.5,0,12375,49.173,29.678,14593.6
2994183667,0.63477,2.223,96.1397,0.0746773,0.0313073,0.880238,-1.3141,3.70456,-0.0464475,-0.163881,0.350533,-0.0368328,1.9,3.5,0,12375,49.173,29.678,14593.6
2994284081,0.63477,2.223,96.1449,0.0750391,0.0257993,0.879491,-1.34728,3.70082,-0.0425521,-0.160307,0.340276,-0.0224739,1.9,3.5,0,12375,49.173,29.678,14593.6
2994384415,0.63477,2.223,96.145,0.0719488,0.0208228,0.879134,-1.37837,3.70731,-0.0480294,-0.0402444,0.373772,-0.0932651,1.9,3.5,0,12375,49.173,29.678,14593.6
2994484760,0.63477,2.223,96.1462,0.0692894,0.0198699,0.87917,-1.40551,3.7104,-0.0443394,-0.0848261,0.301639,0.120177,1.9,3.5,0,12375,49.173,29.678,14593.6
2994585104,0.63477,2.223,96.1434,0.0686928,0.0196206,0.879514,-1.42874,3.72057,-0.04645,-0.0511285,0.311651,0.0756505,1.9,3.5,0,12375,49.173,29.678,14593.6
2994685442,0.63477,2.223,96.1315,0.0656318,0.0199071,0.879741,-1.45338,3.72911,-0.0404766,-0.100306,0.288891,0.165002,1.9,3.5,0,12375,49.253,27.336,13463.8
2994785805,0.63477,2.223,96.1255,0.0642501,0.0193524,0.880182,-1.47179,3.73034,-0.0320936,-0.0913964,0.230888,0.111102,1.9,3.5,0,12375,49.253,27.336,13463.8
2994886187,0.63477,2.223,96.1291,0.0618692,0.0182372,0.88011,-1.4803,3.73252,-0.0365859,-0.053525,0.167693,0.0463329,-5.84759,-1.9632,0,12375,49.253,27.336,13463.8
2994986545,0.63477,2.223,96.1297,0.0486582,0.0252117,0.880549,-1.49218,3.73799,-0.0321977,-0.0526485,0.163677,0.354787,-5.91712,-2.08037,0,12375,49.253,27.336,13463.8
2995086937,0.63477,2.223,96.1374,-0.0809765,0.098735,0.875544,-1.49408,3.73251,0.0307756,-0.228389,-0.151119,0.36151,-5.95218,-2.2211,0,12375,49.253,27.336,13463.8
2995187308,0.63477,2.223,96.1494,-0.204667,0.160498,0.864212,-1.43,3.53747,0.0237491,-1.21195,-1.86409,-0.0537032,-5.94533,-2.39041,0,12375,49.253,27.336,13463.8
2995287650,0.63477,2.223,96.1576,-0.282616,0.19394,0.854902,-1.32462,3.23484,-0.0236875,-1.66752,-2.64769,0.908563,-5.95046,-2.54294,0,12375,49.253,27.336,13463.8
2995388038,0.63477,2.223,96.1609,-0.323154,0.207106,0.8506,-1.1808,2.86031,-0.0246301,-1.90128,-3.26834,1.34963,-5.97807,-2.66463,0,12375,49.253,27.336,13463.8
2995488384,0.63477,2.223,96.1622,-0.336401,0.20258,0.852348,-1.01367,2.48422,-0.0488706,-1.74429,-3.47919,1.16622,-6.03741,-2.74157,0,12375,49.253,27.336,13463.8
2995588726,0.63477,2.223,96.1618,-0.330292,0.193083,0.856787,-0.841365,2.10711,-0.0586918,-1.73559,-3.40192,1.39988,-6.10274,-2.79461,0,12375,49.253,27.336,13463.8
2995689060,0.63477,2.223,96.1509,-0.308777,0.183615,0.861293,-0.666716,1.73809,-0.0641156,-1.63334,-3.36235,1.32895,-6.16066,-2.82583,0,12375,49.301,25.126,12387.4
2995789402,0.63477,2.223,96.1371,-0.275675,0.179591,0.863213,-0.496079,1.39807,-0.0690174,-1.44313,-3.08101,1.22342,-6.19904,-2.862,0,12375,49.301,25.126,12387.4
2995889824,0.63477,2.223,96.1243,-0.236536,0.172788,0.865208,-0.356658,1.07706,-0.0597506,-1.45229,-2.73767,1.10032,-6.23136,-2.87023,0,12375,49.301,25.126,12387.4
2995990184,0.63477,2.223,96.1128,-0.196485,0.164162,0.866116,-0.24392,0.791074,-0.0471034,-1.35173,-2.30093,1.09526,-6.25826,-2.88201,0,12375,49.301,25.126,12387.4
2996090544,0.63477,2.223,96.1053,-0.176555,0.224177,0.861777,-0.15378,0.553734,-0.0126662,-1.20722,-1.90845,0.832077,-6.17818,-2.86576,0,12375,49.301,25.126,12387.4
2996190938,0.63477,2.223,96.1041,-0.170336,0.296323,0.854425,-0.134213,0.265347,-0.053341,-2.14246,-1.75647,0.471954,-6.0437,-2.84945,0,12375,49.301,25.126,12387.4
2996291254,0.63477,2.223,96.099,-0.167537,0.348312,0.848199,-0.172049,-0.089906,-0.0596717,-2.75162,-1.64934,1.4859,-5.91767,-2.81604,0,12375,49.301,25.126,12387.4
2996391604,0.63477,2.223,96.097,-0.16563,0.374272,0.844546,-0.238407,-0.486965,-0.0517883,-3.13604,-1.71917,1.55098,-5.83853,-2.79155,0,12375,49.301,25.126,12387.4
2996491913,0.63477,2.223,96.0979,-0.163034,0.382321,0.843743,-0.326335,-0.885774,-0.0459652,-3.21564,-1.57259,1.84661,-5.79021,-2.76092,0,12375,49.301,25.126,12387.4
2996592324,0.63477,2.223,96.1025,-0.161195,0.381197,0.844166,-0.447177,-1.36051,-0.0211184,-3.30136,-1.49333,1.74342,-5.75741,-2.73342,0,12375,49.301,25.126,12387.4
2996692671,0.63477,2.223,96.1118,-0.157844,0.377751,0.844583,-0.544287,-1.74299,-0.0184076,-3.23758,-1.50215,1.48014,-5.71241,-2.70476,0,12375,49.322,25.184,12421.3
2996792953,0.63477,2.223,96.1156,-0.15443,0.374255,0.844933,-0.637221,-2.10379,-0.0234466,-3.06115,-1.39922,1.49709,-5.6592,-2.67314,0,12375,49.322,25.184,12421.3
2996893356,0.63477,2.223,96.1226,-0.149543,0.370839,0.845845,-0.732641,-2.45488,-0.0170645,-3.00345,-1.3526,1.34562,-5.58856,-2.63538,0,12375,49.322,25.184,12421.3
2996993752,0.63477,2.223,96.1329,-0.145225,0.36631,0.847007,-0.83584,-2.79459,-0.00728231,-3.01967,-1.30301,1.13561,-5.51434,-2.59199,0,12375,49.322,25.184,12421.3
2997094120,0.63477,2.223,96.1397,-0.142642,0.361987,0.847708,-0.927382,-3.1126,-0.0226515,-2.86771,-1.28484,0.939557,-5.42442,-2.55107,0,12375,49.322,25.184,12421.3
2997194508,0.63477,2.223,96.1409,-0.138991,0.358662,0.848253,-1.02496,-3.42092,-0.0253756,-2.74776,-1.16345,1.14605,-5.32546,-2.50448,0,12375,49.322,25.184,12421.3
2997294860,0.63477,2.223,96.1512,-0.13756,0.353817,0.849281,-1.12464,-3.71651,-0.0274578,-2.68066,-1.04347,1.14704,-5.21366,-2.45587,0,12375,49.322,25.184,12421.3
2997395176,0.63477,2.223,96.1608,-0.138787,0.349283,0.849562,-1.22891,-4.00852,-0.024889,-2.76342,-1.05503,0.952276,-5.09411,-2.40319,0,12375,49.322,25.184,12421.3
2997495529,0.63477,2.223,96.1679,-0.139788,0.347269,0.849596,-1.32895,-4.28277,-0.0298835,-2.61243,-0.967208,0.984422,-4.95762,-2.35063,0,12375,49.322,25.184,12421.3
2997597418,0.63477,2.223,96.1657,-0.145614,0.336925,0.85119,-1.41502,-4.56169,-0.0342333,-2.54768,-1.13043,0.997741,-4.83344,-2.29093,0,12375,49.322,25.184,12421.3
2997698739,0.63477,2.223,96.1752,-0.134548,0.294148,0.857512,-1.48824,-4.83351,-0.0230921,-2.33917,-1.09728,1.09297,-4.75917,-2.23269,0,12375,49.289,25.737,12685.5
2997799079,0.63477,2.223,96.1851,-0.117334,0.23626,0.865607,-1.53233,-5.05763,-0.0072458,-1.91479,-1.14284,0.627309,-4.68595,-2.16218,0,12375,49.289,25.737,12685.5
2997899479,0.63477,2.223,96.2017,-0.0936717,0.175549,0.871992,-1.54487,-5.2099,0.00467304,-1.24986,-0.946293,0.240588,-4.58867,-2.09419,0,12375,49.289,25.737,12685.5
2997999843,0.63477,2.223,96.2094,-0.072261,0.129247,0.876187,-1.52785,-5.30076,0.00441621,-0.626671,-0.739328,0.342696,-4.45225,-2.01807,0,12375,49.289,25.737,12685.5
2998100259,0.63477,2.223,96.2167,-0.0475036,0.0819096,0.879349,-1.50496,-5.34158,-0.00430543,-0.245113,-0.513921,-0.257242,-4.30571,-1.94305,0,12375,49.289,25.737,12685.5
2998200611,0.63477,2.223,96.2209,-0.0270063,0.0430248,0.880467,-1.46515,-5.33633,-0.0150978,0.213486,-0.306975,0.24554,-4.13796,-1.86642,0,12375,49.289,25.737,12685.5
2998300945,0.63477,2.223,96.2214,-0.00910169,0.011346,0.881829,-1.42106,-5.28759,-0.0284009,0.518792,-0.107082,-0.190754,-3.97217,-1.78735,0,12375,49.289,25.737,12685.5
2998401286,0.63477,2.223,96.2143,0.00887047,-0.0130066,0.881628,-1.37775,-5.20115,-0.0451634,0.748677,0.113028,0.035677,-3.79666,-1.71,0,12375,49.289,25.737,12685.5
2998501642,0.63477,2.223,96.2085,0.0219522,-0.0364732,0.880223,-1.33782,-5.09961,-0.0389125,0.817864,0.282031,-0.0407993,-3.63821,-1.64219,0,12375,49.289,25.737,12685.5
2998602011,0.63477,2.223,96.2072,0.0332786,-0.054742,0.879758,-1.2821,-4.96154,-0.0394858,1.16901,0.423161,0.0598856,-3.47717,-1.56881,0,12375,49.289,25.737,12685.5
2998702368,0.634769,2.223,96.2051,0.0399158,-0.0540861,0.879416,-1.22577,-4.79872,-0.0491591,1.30888,0.497018,0.380283,-3.341,-1.50371,0,12375,49.289,25.737,12685.5
2998802727,0.634769,2.223,96.1982,0.0458377,-0.0539903,0.879428,-1.18477,-4.64488,-0.0952339,1.17319,0.584978,-0.340832,-3.19897,-1.43537,0,12373,49.153,28.293,13906.9
2998903133,0.634769,2.223,96.2081,0.044012,-0.0514006,0.879423,-1.14501,-4.47961,-0.083352,1.19885,0.588515,0.370462,-3.07922,-1.37547,0,12373,49.153,28.293,13906.9
2999003496,0.634769,2.223,96.2168,0.0419283,-0.0518733,0.879257,-1.10466,-4.31373,-0.0801983,1.22942,0.606804,0.221534,-2.95111,-1.31379,0,12373,49.153,28.293,13906.9
2999103855,0.634769,2.223,96.2153,0.0373479,-0.0506336,0.878972,-1.06841,-4.16908,-0.0620738,1.08601,0.485808,0.0273865,-2.84228,-1.26271,0,12373,49.153,28.293,13906.9
2999204243,0.634769,2.223,96.2113,0.0294737,-0.0496311,0.879477,-1.01988,-4.02015,-0.0747939,1.23999,0.384664,0.136845,-2.72655,-1.20664,0,12373,49.153,28.293,13906.9
2999304588,0.634769,2.223,96.215,0.0285482,-0.0392771,0.879754,-0.971712,-3.87251,-0.0840828,1.15066,0.421719,-0.388111,-2.62856,-1.16023,0,12373,49.153,28.293,13906.9
2999404935,0.634769,2.223,96.2219,0.0277406,-0.0327861,0.879547,-0.941389,-3.74322,-0.0922682,0.955522,0.428593,0.147828,-2.52389,-1.11143,0,12373,49.153,28.293,13906.9
2999505288,0.634769,2.223,96.2278,0.0267583,-0.0280942,0.879413,-0.907451,-3.62481,-0.0691753,0.908017,0.385473,0.0335604,-2.43,-1.06873,0,12373,49.153,28.293,13906.9
2999605572,0.634769,2.223,96.23,0.0265836,-0.0274274,0.879105,-0.874713,-3.51149,-0.0639447,0.901123,0.306059,0.185194,-2.3298,-1.02272,0,12373,49.153,28.293,13906.9
2999707433,0.634769,2.223,96.2298,0.0276623,-0.0393037,0.878798,-0.850189,-3.40429,-0.0598699,0.880385,0.342016,0.1606,-2.2335,-0.981788,0,12373,49.153,28.293,13906.9
2999813909,0.634769,2.223,96.2305,0.0284974,-0.0376171,0.879235,-0.805412,-3.24712,-0.0601683,1.10946,0.449756,0.198842,-2.13604,-0.936848,0,12373,49.139,29.203,14350.1
2999915521,0.634769,2.223,96.2327,0.0298924,-0.0350725,0.878848,-0.781982,-3.12626,-0.0616578,1.00835,0.495438,-0.115087,-2.04121,-0.896717,0,12373,49.139,29.203,14350.1
3000015915,0.634769,2.223,96.2273,0.0280099,-0.037435,0.878737,-0.747401,-3.01247,-0.0678585,0.99131,0.367444,0.116286,-1.94783,-0.854647,0,12373,49.139,29.203,14350.1
3000116406,0.634769,2.223,96.2235,0.0259758,-0.0406616,0.87859,-0.709507,-2.90814,-0.0621552,0.966893,0.280861,-0.0539854,-1.8573,-0.815879,0,12373,49.139,29.203,14350.1
3000216750,0.634769,2.223,96.2183,0.0256856,-0.036671,0.878619,-0.669063,-2.79654,-0.0800941,0.999739,0.299221,-0.379941,-1.77038,-0.77639,0,12373,49.139,29.203,14350.1
3000317115,0.634769,2.223,96.2127,0.0227482,-0.029652,0.878983,-0.630831,-2.69746,-0.106415,0.894993,0.237049,0.205951,-1.68596,-0.738319,0,12373,49.139,29.203,14350.1
3000417467,0.634769,2.223,96.2029,0.0251443,-0.0226894,0.88017,-0.588363,-2.59196,-0.100505,0.972501,0.223892,0.233802,-1.6056,-0.698668,0,12373,49.139,29.203,14350.1
3000517835,0.634769,2.223,96.1995,0.0299803,-0.0207354,0.880531,-0.549688,-2.49334,-0.103362,0.952424,0.273434,-0.153365,-1.52717,-0.66105,0,12373,49.139,29.203,14350.1
3000618205,0.634769,2.223,96.194,0.0353421,-0.0156468,0.880338,-0.519608,-2.39044,-0.113392,0.941027,0.356719,0.233714,-1.45241,-0.624464,0,12373,49.139,29.203,14350.1
3000718557,0.634769,2.223,96.196,0.0409998,-0.0191191,0.879463,-0.495939,-2.2897,-0.0983285,0.886408,0.370107,-0.109867,-1.37923,-0.590373,0,12373,49.139,29.203,14350.1
3000818865,0.634769,2.223,96.2004,0.0458836,-0.0193287,0.880057,-0.479684,-2.18313,-0.079431,0.87604,0.461466,0.0561024,-1.31072,-0.555406,0,12373,49.433,22.7,11221.3
3000919274,0.634769,2.223,96.2053,0.0446325,-0.0228324,0.880333,-0.46797,-2.07213,-0.0696803,0.921747,0.555746,0.209905,-1.24002,-0.522001,0,12373,49.433,22.7,11221.3
3001020531,0.634769,2.223,96.2011,0.0441167,-0.0223955,0.880471,-0.453392,-1.96183,-0.0597027,0.924045,0.544358,0.163323,-1.174,-0.490334,0,12373,49.433,22.7,11221.3
3001120852,0.634769,2.223,96.1987,0.0425543,-0.0209899,0.88058,-0.44728,-1.86269,-0.0525244,0.798536,0.504764,0.0223375,-1.11199,-0.463517,0,12373,49.433,22.7,11221.3
3001221230,0.634769,2.223,96.1978,0.0357836,-0.0196903,0.880778,-0.427841,-1.76516,-0.0530503,0.872533,0.392759,0.0165777,-1.05463,-0.438183,0,12373,49.433,22.7,11221.3
3001321588,0.634769,2.223,96.1943,0.0299815,-0.0191246,0.880913,-0.411151,-1.66139,-0.0526524,0.86439,0.422455,0.0570562,-0.997629,-0.415723,0,12373,49.433,22.7,11221.3
3001421930,0.634769,2.223,96.1885,0.0242976,-0.016549,0.881047,-0.386951,-1.57473,-0.0606154,0.827729,0.333044,-0.0393052,-0.944614,-0.393449,0,12373,49.433,22.7,11221.3
3001523629,0.634769,2.223,96.1884,0.0210671,-0.0155533,0.881136,-0.357399,-1.49292,-0.0498881,0.830757,0.208761,0.146084,-0.892255,-0.374165,0,12373,49.433,22.7,11221.3
3001629517,0.634769,2.223,96.1933,0.0176509,-0.0143525,0.881627,-0.332661,-1.41937,-0.0526549,0.71878,0.249236,-0.18613,-0.844263,-0.35445,0,12373,49.433,22.7,11221.3
3001729885,0.634769,2.223,96.192,0.0148925,-0.0114859,0.881686,-0.308239,-1.33939,-0.0506047,0.793159,0.331783,0.371672,-0.798077,-0.337039,0,12373,49.433,22.7,11221.3
3001830249,0.634769,2.223,96.1859,0.0129582,-0.00821141,0.881089,-0.276935,-1.27592,-0.0461199,0.738785,0.138843,-0.0399023,-0.755439,-0.319876,0,12373,49.424,22.495,11117.9
3001930656,0.634769,2.223,96.1853,0.0182924,-0.00626772,0.881029,-0.24798,-1.2178,-0.0636535,0.633486,0.0932253,0.227392,-0.713387,-0.303137,0,12373,49.424,22.495,11117.9
3002031013,0.634769,2.223,96.1856,0.0225925,-0.0043908,0.88101,-0.229421,-1.15243,-0.0606732,0.681456,0.308065,-0.11383,-0.674838,-0.285934,0,12373,49.424,22.495,11117.9
3002131333,0.634769,2.223,96.1745,0.0254244,-0.00161048,0.881265,-0.212283,-1.08998,-0.0639594,0.694766,0.252147,0.207538,-0.636987,-0.268601,0,12373,49.424,22.495,11117.9
3002231699,0.634769,2.223,96.1655,0.0257657,0.00174542,0.880894,-0.192593,-1.02931,-0.0521014,0.620939,0.224816,0.0160612,-0.60224,-0.252436,0,12373,49.424,22.495,11117.9
3002332071,0.634769,2.223,96.1565,0.027327,0.00637639,0.880805,-0.178377,-0.968563,-0.0575976,0.555209,0.239287,-0.0753925,-0.536896,-0.220803,0,12373,49.424,22.495,11117.9
3002432342,0.634769,2.223,96.1572,0.029891,0.00760166,0.880072,-0.17067,-0.910358,-0.0556783,0.576679,0.321968,0.0825221,-0.506617,-0.205959,0,12373,49.424,22.495,11117.9
3002532617,0.634769,2.223,96.1597,0.0331579,0.00572372,0.879946,-0.172218,-0.85218,-0.0564627,0.496634,0.357029,-0.117165,-0.47937,-0.192426,0,12373,49.424,22.495,11117.9
3002632904,0.634769,2.223,96.154,0.032351,0.00714895,0.880347,-0.169263,-0.793658,-0.0527417,0.557847,0.344979,0.263507,-0.451556,-0.17951,0,12373,49.424,22.495,11117.9
3002733258,0.634769,2.223,96.151,0.0283498,0.00776778,0.880215,-0.159923,-0.74189,-0.0476989,0.563632,0.265204,0.144183,-0.426575,-0.168353,0,12373,49.424,22.495,11117.9
3002833620,0.634769,2.223,96.1504,0.0248413,0.0101882,0.880468,-0.165254,-0.68896,-0.0488328,0.416883,0.36596,0.0276834,-0.402414,-0.157946,0,12373,49.346,24.506,12092.7
3002934003,0.634769,2.223,96.1495,0.0213674,0.00891673,0.880193,-0.161032,-0.642081,-0.051341,0.478535,0.231648,-0.00764585,-0.380843,-0.149056,0,12330,49.346,24.506,12092.7
3003034355,0.634769,2.223,96.1485,0.0192353,0.00835647,0.880271,-0.156062,-0.589019,-0.0375174,0.437225,0.239638,0.0270281,-0.359616,-0.142031,0,12330,49.346,24.506,12092.7
3003134700,0.634769,2.223,96.1437,0.017587,0.00903499,0.880128,-0.150723,-0.539887,-0.0370437,0.443794,0.24018,0.036268,-0.340726,-0.135896,0,12330,49.346,24.506,12092.7
3003235053,0.634769,2.223,96.1433,0.0154528,0.0109413,0.880261,-0.141858,-0.496975,-0.035808,0.450765,0.130285,-0.156785,-0.320769,-0.130347,0,12330,49.346,24.506,12092.7
3003335450,0.634769,2.223,96.1391,0.0119642,0.014015,0.879976,-0.134761,-0.453073,-0.0395007,0.431126,0.18133,-0.131199,-0.1,-0.7,0,12330,49.346,24.506,12092.7
3003435791,0.634769,2.223,96.1334,0.0106385,0.017975,0.880163,-0.118835,-0.414682,-0.0388217,0.44112,0.125661,-0.0453068,-0.1,-0.7,0,12330,49.346,24.506,12092.7
3003536131,0.634769,2.223,96.1237,0.0121771,0.0105796,0.880053,-0.115172,-0.389501,-0.0397365,0.319637,0.123213,-0.0627262,-0.1,-0.7,0,12330,49.346,24.506,12092.7
3003636508,0.634769,2.223,96.117,0.014848,0.0039349,0.879639,-0.0948278,-0.343031,-0.0382775,0.489171,0.121755,-0.0531864,-0.1,-0.7,0,12330,49.346,24.506,12092.7
3003736876,0.634769,2.223,96.1037,0.0169891,-0.000678226,0.879628,-0.0838547,-0.285699,-0.0454331,0.57191,0.244807,0.242679,-0.1,-0.7,0,12330,49.346,24.506,12092.7
3003837200,0.634769,2.223,96.096,0.0183682,-0.00175578,0.879485,-0.0662596,-0.235746,-0.037599,0.529843,0.149763,0.126682,-0.1,-0.7,0,12330,49.346,24.506,12092.7
3003937527,0.634769,2.223,96.0895,0.0168276,0.000664626,0.879594,-0.0446618,-0.182408,-0.0388696,0.535719,0.134965,0.111347,-0.1,-0.7,0,12330,49.3,25.293,12469.4
3004037874,0.634769,2.223,96.0868,0.0167918,0.0028007,0.879656,-0.0277955,-0.133705,-0.0283409,0.513352,0.177517,0.264549,-0.1,-0.7,0,12330,49.3,25.293,12469.4
3004138230,0.634769,2.223,96.0883,0.014845,0.00534063,0.879803,-0.0221843,-0.0868945,-0.0180101,0.400063,0.265715,-0.0247872,-0.1,-0.7,0,12330,49.3,25.293,12469.4
3004238592,0.634769,2.223,96.0877,0.0113286,0.00901259,0.880236,-0.0100919,-0.0467441,-0.011949,0.402681,0.140262,0.190752,-0.1,-0.7,0,12330,49.3,25.293,12469.4
3004338936,0.634769,2.223,96.0867,0.00948566,0.0149012,0.880463,-0.00201993,-0.0124194,-0.00772918,0.321797,0.139551,-0.00115673,-0.1,-0.7,0,12330,49.3,25.293,12469.4
3004439249,0.634769,2.223,96.088,-0.00104178,0.021482,0.880221,0.00835177,0.0188947,-0.0163492,0.324756,0.0619793,-0.155496,-0.1,-0.7,0,12330,49.3,25.293,12469.4
3004539569,0.634769,2.223,96.09,-0.0583355,0.0312009,0.878334,0.0283872,0.0290601,0.0110384,0.219733,-0.300571,0.0120617,-0.1,-0.7,0,12330,49.3,25.293,12469.4
3004649373,0.634769,2.223,96.0957,-0.0987477,0.0418892,0.876474,0.0856652,-0.00785808,-0.00862597,0.117414,-0.6844,-0.101035,-0.1,-0.7,0,12330,49.3,25.293,12469.4
3004754948,0.634769,2.223,96.0958,-0.118735,0.0492849,0.875779,0.18223,-0.0890142,-0.0141854,0.00492689,-1.12784,0.171035,-0.1,-0.7,0,12330,49.3,25.293,12469.4
3004855363,0.634769,2.223,96.1019,-0.113955,0.0505289,0.876138,0.269199,-0.172382,-0.00802975,-0.0650349,-1.12772,0.236656,-0.1,-0.7,0,12330,49.3,25.293,12469.4
3004955771,0.634769,2.223,96.1082,-0.0997696,0.0498896,0.876928,0.348617,-0.243131,-0.0109156,0.0270546,-1.06789,-0.0308055,-0.1,-0.7,0,12330,49.287,25.465,12550.9
3005056250,0.634769,2.223,96.1101,-0.0819096,0.0487979,0.877611,0.414359,-0.306822,-0.00526044,-0.0274632,-0.849694,0.0690745,-0.1,-0.7,0,12330,49.287,25.465,12550.9
3005156655,0.634769,2.223,96.1018,-0.0640103,0.047703,0.878098,0.467513,-0.354156,-0.0122389,-0.0257735,-0.668017,-0.24197,-0.1,-0.7,0,12330,49.287,25.465,12550.9
3005257056,0.634769,2.223,96.0934,-0.0487558,0.0462601,0.878105,0.502505,-0.387452,-0.0247308,-0.0357998,-0.465028,-0.0300917,-0.1,-0.7,0,12330,49.287,25.465,12550.9
3005357556,0.634769,2.223,96.0848,-0.0375221,0.0435147,0.878269,0.529943,-0.406298,-0.0253427,0.0838712,-0.306905,-0.0092564,2.8,4.9,0,12330,49.287,25.465,12550.9
3005457872,0.634769,2.223,96.0804,-0.0128512,0.0311267,0.878632,0.563179,-0.418072,-0.0102463,0.0848332,-0.327979,0.330179,2.8,4.9,0,12330,49.287,25.465,12550.9
3005558241,0.634769,2.223,96.0855,0.140444,-0.05905,0.876334,0.573489,-0.388948,0.030702,0.583529,0.434833,0.109433,2.8,4.9,0,12330,49.287,25.465,12550.9
3005658598,0.634769,2.223,96.0935,0.278103,-0.125341,0.863185,0.504703,-0.152068,-0.00428237,1.46765,2.19508,0.11348,2.8,4.9,0,12330,49.287,25.465,12550.9
3005758952,0.634769,2.223,96.0967,0.365478,-0.164146,0.849482,0.376324,0.203471,-0.0421044,1.87103,3.11591,1.40452,2.8,4.9,0,12330,49.287,25.465,12550.9
3005859297,0.634769,2.223,96.0841,0.403614,-0.181253,0.841799,0.218976,0.649336,-0.050894,2.20046,3.6095,2.04537,2.8,4.9,0,12330,49.287,25.465,12550.9
3005959630,0.634769,2.223,96.0707,0.417188,-0.186411,0.839182,0.0403738,1.124,-0.0370466,2.25675,3.77655,2.46932,2.8,4.9,0,12330,49.259,25.465,12543.8
3006059972,0.634769,2.223,96.062,0.413825,-0.18344,0.840003,-0.141056,1.60179,-0.0302907,2.26429,3.84536,2.35533,2.8,4.9,0,12330,49.259,25.465,12543.8
3006161483,0.634769,2.223,96.0497,0.405222,-0.176023,0.843229,-0.310501,2.06402,-0.0257447,2.17591,3.65536,2.2008,2.8,4.9,0,12330,49.259,25.465,12543.8
3006263830,0.634769,2.223,96.0456,0.398021,-0.165499,0.846801,-0.489308,2.50866,-0.0206078,2.03103,3.61409,2.01814,2.8,4.9,0,12330,49.259,25.465,12543.8
3006364214,0.634769,2.223,96.0496,0.391501,-0.155548,0.849505,-0.662137,2.94172,-0.00411225,1.99781,3.55241,1.87592,2.8,4.9,0,12330,49.259,25.465,12543.8
3006464564,0.634769,2.223,96.0468,0.383642,-0.143989,0.852695,-0.838339,3.35125,-0.0066558,1.81352,3.3824,1.75103,2.8,4.9,0,12330,49.259,25.465,12543.8
3006564908,0.634769,2.223,96.0487,0.378048,-0.132965,0.855914,-1.01819,3.74226,-5.9396e-05,1.65597,3.281,1.66838,2.8,4.9,0,12330,49.259,25.465,12543.8
3006665261,0.634769,2.223,96.0551,0.344722,-0.111154,0.863094,-1.19584,4.11207,0.0144573,1.52361,3.09617,1.52462,2.8,4.9,0,12330,49.259,25.465,12543.8
3006765632,0.634769,2.223,96.0665,0.300392,-0.0867401,0.869786,-1.35536,4.42146,0.0209249,1.2162,2.71453,1.05599,2.8,4.9,0,12330,49.259,25.465,12543.8
3006865972,0.634769,2.223,96.0777,0.254659,-0.0660607,0.87429,-1.49477,4.65812,0.0314724,0.865591,2.18982,0.78726,2.8,4.9,0,12330,49.259,25.465,12543.8
3006966352,0.634769,2.223,96.0877,0.214973,-0.0489399,0.877625,-1.60187,4.84811,0.0369712,0.721555,1.74719,0.299191,2.8,4.9,0,12330,49.215,26.581,13081.8
3007066703,0.634769,2.223,96.0962,0.1806,-0.0352561,0.879829,-1.69323,4.99173,0.0290014,0.517728,1.36975,0.22189,2.8,4.9,0,12330,49.215,26.581,13081.8
3007168315,0.634769,2.223,96.1022,0.152426,-0.0259259,0.880707,-1.76063,5.10882,0.0301803,0.486398,1.03667,0.141163,2.8,4.9,0,12330,49.215,26.581,13081.8
3007271787,0.634769,2.223,96.1164,0.131638,-0.0192388,0.880872,-1.80909,5.19209,0.025904,0.384013,0.730142,-0.0306439,2.8,4.9,0,12330,49.215,26.581,13081.8
3007372169,0.634769,2.223,96.1285,0.117485,-0.0144452,0.880764,-1.84698,5.2584,0.0211047,0.281421,0.645349,0.0245993,-3,4.6,0,12330,49.215,26.581,13081.8
3007472557,0.634769,2.223,96.1355,0.0991045,0.00839919,0.879385,-1.87165,5.31329,0.0207153,0.308361,0.379592,0.331789,-3,4.6,0,12330,49.215,26.581,13081.8
3007572934,0.634769,2.223,96.1484,0.04128,0.179469,0.878731,-1.91578,5.28991,0.0902965,-0.837906,0.0321035,0.163136,-3,4.6,0,12330,49.215,26.581,13081.8
3007673315,0.634769,2.223,96.162,0.00541295,0.329857,0.879707,-2.03605,5.06379,0.0149975,-2.75498,-0.509139,-0.299415,-3,4.6,0,12330,49.215,26.581,13081.8
3007773690,0.634769,2.223,96.1611,-0.00358656,0.418325,0.882325,-2.22181,4.726,-0.0353762,-3.58733,-0.632438,1.33732,-3,4.6,0,12330,49.215,26.581,13081.8
3007874043,0.634769,2.223,96.1619,-0.00448268,0.459157,0.886727,-2.45867,4.33017,-0.0411586,-4.04867,-0.585594,1.85508,-3,4.6,0,12330,49.215,26.581,13081.8
3007974340,0.634769,2.223,96.1707,0.00323704,0.468461,0.890792,-2.70323,3.9134,-0.0625554,-4.22166,-0.612811,1.97526,-3,4.6,0,12286,49.2,27.45,13505.4
3008074880,0.634769,2.223,96.1628,0.0144933,0.462011,0.89442,-2.95385,3.50316,-0.0669388,-4.08921,-0.5473,2.09362,-3,4.6,0,12286,49.2,27.45,13505.4
3008175304,0.634769,2.223,96.1405,0.0289179,0.450892,0.897202,-3.20392,3.10661,-0.0621873,-3.96276,-0.453699,2.10324,-3,4.6,0,12286,49.2,27.45,13505.4
3008275647,0.634769,2.223,96.1266,0.0506234,0.44251,0.899996,-3.45287,2.72107,-0.0670483,-3.86177,-0.420487,1.96235,-3,4.6,0,12286,49.2,27.45,13505.4
3008375988,0.634768,2.223,96.1291,0.0721087,0.43202,0.902764,-3.71883,2.36026,-0.0617543,-3.75838,-0.152586,1.93185,-3,4.6,0,12286,49.2,27.45,13505.4
3008476366,0.634768,2.223,96.1209,0.0920078,0.421485,0.905922,-3.98365,2.02831,-0.0501364,-3.54204,0.0164286,1.88898,-3,4.6,0,12286,49.2,27.45,13505.4
3008576702,0.634768,2.223,96.1115,0.108372,0.390132,0.905935,-4.24638,1.72124,-0.0438861,-3.46678,0.158014,1.53503,-3,4.6,0,12286,49.2,27.45,13505.4
3008677062,0.634768,2.223,96.1122,0.11954,0.339317,0.903318,-4.49201,1.46434,-0.0322696,-2.99729,0.347497,1.28579,-3,4.6,0,12286,49.2,27.45,13505.4
3008778185,0.634768,2.223,96.118,0.121464,0.286793,0.899051,-4.71426,1.26319,-0.00705892,-2.50959,0.495745,1.05688,-3,4.6,0,12286,49.2,27.45,13505.4
3008879156,0.634768,2.223,96.1278,0.124708,0.237826,0.895337,-4.89773,1.10946,0.023007,-1.87004,0.464142,0.92287,-3,4.6,0,12286,49.2,27.45,13505.4
3008979491,0.634768,2.223,96.1327,0.130759,0.201703,0.891875,-5.03865,0.998873,8.69967e-05,-1.55589,0.505276,0.0891429,-3,4.6,0,12286,49.2,27.45,13505.4
3009082559,0.634768,2.223,96.1341,0.13156,0.172802,0.889292,-5.15338,0.927906,-0.0226452,-1.10896,0.572598,0.287899,-3,4.6,0,12286,49.2,27.45,13505.4
3009191187,0.634768,2.223,96.1359,0.123522,0.148288,0.886764,-5.25999,0.878999,-0.0174978,-0.953317,0.5677,0.316175,-3,4.6,0,12286,49.2,27.45,13505.4
3009296713,0.634768,2.223,96.1469,0.11393,0.128984,0.885037,-5.33843,0.851798,-0.0230753,-0.514956,0.470942,-0.184805,-3,4.6,0,12286,49.2,27.45,13505.4
3009397276,0.634768,2.223,96.1599,0.105462,0.118636,0.884401,-5.38588,0.843422,-0.0185643,-0.345968,0.410691,-0.0326887,0.8,4.8,0,12286,49.2,27.45,13505.4
3009497657,0.634768,2.223,96.1731,0.100648,0.0843918,0.884285,-5.42526,0.832446,-0.0205407,-0.433237,0.311542,0.456461,0.8,4.8,0,12286,49.2,30.905,15205.3
3009597995,0.634768,2.223,96.1879,0.100152,-0.124337,0.878184,-5.43365,0.866432,0.0499091,0.568346,0.301815,0.59389,0.8,4.8,0,12286,49.003,30.905,15144.4
3009698884,0.634767,2.223,96.2023,0.0961315,-0.303637,0.86945,-5.25154,1.12429,0.0436352,3.08891,0.22396,0.279778,0.8,4.8,0,12286,49.003,30.905,15144.4
3009799319,0.634767,2.223,96.2114,0.100247,-0.386622,0.863616,-4.99399,1.4701,-0.00548127,4.01613,0.192465,1.59492,0.8,4.8,0,12286,49.003,30.905,15144.4
3009899661,0.634767,2.223,96.2069,0.103496,-0.42782,0.859617,-4.68433,1.89939,-0.0289523,4.84973,0.327811,1.59476,0.8,4.8,0,12286,49.003,30.905,15144.4
3010000045,0.634767,2.223,96.1876,0.0943514,-0.390735,0.860976,-4.36119,2.3393,-0.0543201,4.67835,0.216974,2.03894,0.8,4.8,0,12286,49.003,30.905,15144.4
3010100426,0.634767,2.223,96.1586,0.0892674,-0.318427,0.864906,-4.06467,2.72796,-0.0556028,4.13335,0.143125,1.6804,0.8,4.8,0,12286,49.003,30.905,15144.4
3010200800,0.634767,2.223,96.1278,0.0840775,-0.240267,0.868803,-3.83387,3.02379,-0.0706406,3.23621,0.122963,0.721419,0.8,4.8,0,12286,49.003,30.905,15144.4
3010301156,0.634767,2.223,96.106,0.0766555,-0.171465,0.872062,-3.66087,3.25251,-0.0948844,2.4104,0.125925,0.446833,0.8,4.8,0,12286,49.003,30.905,15144.4
3010401551,0.634767,2.223,96.0994,0.0723606,-0.11702,0.874662,-3.51656,3.42704,-0.0881736,1.83954,-0.0147077,0.497122,0.8,4.8,0,12286,49.003,30.905,15144.4
3010501906,0.634767,2.223,96.1075,0.074163,-0.0730585,0.876556,-3.40154,3.54635,-0.0611608,1.28953,-0.114069,0.0345918,0.8,4.8,0,12286,49.003,30.905,15144.4
3010602216,0.634767,2.223,96.1288,0.0767212,-0.0441373,0.877702,-3.3185,3.64915,-0.0700242,1.03991,-0.056981,-0.0216864,0.8,4.8,0,12286,49.135,27.487,13505.7
3010702513,0.634767,2.223,96.1463,0.070221,-0.0160962,0.879051,-3.25972,3.73472,-0.0477425,0.683336,-0.0159584,0.200045,0.8,4.8,0,12286,49.135,27.487,13505.7
3010802775,0.634767,2.223,96.1673,0.0725101,0.00427533,0.880493,-3.21464,3.77546,-0.0361087,0.340675,-0.0851275,-0.352263,0.8,4.8,0,12286,49.135,27.487,13505.7
3010903026,0.634767,2.223,96.1843,0.0817074,0.0148302,0.88043,-3.18644,3.80222,-0.0457157,0.177771,-0.0263114,-0.255143,0.8,4.8,0,12286,49.135,27.487,13505.7
3011003342,0.634767,2.223,96.1974,0.0866083,0.0205242,0.880622,-3.1751,3.83952,-0.0515935,0.219879,0.18366,-0.226921,0.8,4.8,0,12286,49.135,27.487,13505.7
3011103706,0.634767,2.223,96.2069,0.0828515,0.0271028,0.881134,-3.17105,3.87488,-0.0579767,0.165861,0.16826,-0.240817,0.8,4.8,0,12286,49.135,27.487,13505.7
3011204090,0.634767,2.223,96.2056,0.0780755,0.0326855,0.881254,-3.18208,3.887,-0.0590325,-0.0157655,0.125535,0.104973,0.8,4.8,0,12286,49.135,27.487,13505.7
3011304453,0.634767,2.223,96.2073,0.0738853,0.0327485,0.881198,-3.18633,3.88545,-0.0547756,-0.118545,0.0290223,-0.00744699,0.8,4.8,0,12286,49.135,27.487,13505.7
3011404874,0.634767,2.223,96.2083,0.0733518,0.0302696,0.880597,-3.19404,3.89017,-0.0468266,0.00839389,0.0579464,-0.0817576,-1.17257,-8.179,0,12286,49.135,27.487,13505.7
3011505236,0.634767,2.223,96.2013,0.038818,0.0313945,0.880473,-3.20567,3.89455,-0.0358215,0.0096645,0.078042,0.721413,-1.19517,-8.35226,0,12286,49.135,27.487,13505.7
3011605532,0.634766,2.223,96.1897,-0.14588,0.0552214,0.875664,-3.16459,3.85643,0.0415085,-0.0340159,-0.921481,0.591953,-1.18338,-8.52272,0,12286,49.325,25.692,12672.6
3011705917,0.634766,2.223,96.1941,-0.295338,0.0776525,0.868901,-2.97686,3.65501,0.0377511,-0.330748,-2.91795,0.122956,-1.1395,-8.6866,0,12286,49.325,25.692,12672.6
3011806280,0.634766,2.223,96.19,-0.385842,0.0960519,0.862568,-2.72637,3.35944,-0.0123744,-0.554776,-3.66626,1.4891,-1.10412,-8.84037,0,12286,49.325,25.692,12672.6
3011906596,0.634766,2.223,96.1788,-0.437592,0.112462,0.855514,-2.42305,2.98173,-0.0220083,-0.832324,-4.29482,2.07218,-1.04836,-8.97084,0,12286,49.325,25.692,12672.6
3012006953,0.634766,2.223,96.1693,-0.448618,0.116776,0.852817,-2.11514,2.56949,-0.0522442,-1.04004,-4.58417,1.93199,-1.03797,-9.09415,0,12286,49.325,25.692,12672.6
3012107301,0.634766,2.223,96.1387,-0.435626,0.113663,0.853885,-1.81989,2.16298,-0.0827002,-1.02271,-4.42958,1.91978,-1.05205,-9.19874,0,12286,49.325,25.692,12672.6
3012209387,0.634766,2.223,96.0934,-0.414859,0.102486,0.858264,-1.53164,1.77356,-0.109269,-0.924704,-4.11616,2.07096,-1.10217,-9.29657,0,12286,49.325,25.692,12672.6
3012310612,0.634766,2.223,96.0563,-0.386531,0.0880387,0.863476,-1.247,1.39931,-0.12122,-0.842416,-3.99824,1.94741,-1.15105,-9.36077,0,12286,49.325,25.692,12672.6
3012410988,0.634766,2.223,96.0302,-0.349512,0.0637155,0.872602,-0.985299,1.06457,-0.140529,-0.733055,-3.67741,1.54065,-1.24034,-9.41518,0,12286,49.325,25.692,12672.6
3012511285,0.634766,2.223,96.0039,-0.302282,0.0354244,0.88232,-0.724873,0.77136,-0.116099,-0.419405,-3.35632,1.65858,-1.32748,-9.43203,0,12286,49.325,25.692,12672.6
3012611572,0.634766,2.223,95.9763,-0.327187,0.0297992,0.88108,-0.470407,0.533034,-0.0485926,-0.121733,-3.00044,1.61898,-1.31264,-9.44905,0,12242,49.349,22.528,11117.3
3012711959,0.634766,2.223,95.969,-0.363921,0.0375082,0.874374,-0.109608,0.211376,-0.00384623,-0.0392825,-3.67749,1.65891,-1.24303,-9.44373,0,12242,49.349,22.528,11117.3
3012812344,0.634766,2.223,95.9802,-0.397967,0.0472484,0.869084,0.213674,-0.0921957,0.0312269,-0.173142,-4.02382,1.74398,-1.18994,-9.43339,0,12242,49.349,22.528,11117.3
3012912745,0.634766,2.223,96.0052,-0.409738,0.0553479,0.865226,0.540026,-0.408682,0.0390874,-0.25036,-4.16151,1.46987,-1.15144,-9.39769,0,12242,49.349,22.528,11117.3
3013013097,0.634766,2.223,96.0305,-0.403141,0.0644953,0.861124,0.846259,-0.726728,0.049293,-0.407732,-4.00298,1.5355,-1.11144,-9.35502,0,12242,49.349,22.528,11117.3
3013113467,0.634766,2.223,96.0544,-0.390192,0.0715408,0.858397,1.12799,-1.03871,0.0570274,-0.557853,-3.73817,1.58913,-1.08719,-9.29201,0,12242,49.349,22.528,11117.3
3013213809,0.634766,2.223,96.0812,-0.375853,0.0745195,0.857761,1.39015,-1.33208,0.0511582,-0.582093,-3.70975,1.07402,-1.08074,-9.22139,0,12242,49.349,22.528,11117.3
3013314170,0.634766,2.223,96.0983,-0.364904,0.0760711,0.857777,1.64152,-1.61154,0.0475221,-0.521512,-3.54928,0.984911,-1.08227,-9.13606,0,12242,49.349,22.528,11117.3
3013414547,0.634766,2.223,96.1098,-0.355751,0.0756113,0.85954,1.88068,-1.87193,0.0333897,-0.462148,-3.37917,0.914201,-1.09616,-9.0409,0,12242,49.349,22.528,11117.3
3013514860,0.634766,2.223,96.1172,-0.348084,0.072266,0.86298,2.10316,-2.1183,0.00395903,-0.500806,-3.20278,0.766589,-1.12693,-8.93315,0,12242,49.349,22.528,11117.3
3013615182,0.634766,2.223,96.1169,-0.345554,0.0674,0.868153,2.32576,-2.36282,-0.00553221,-0.460952,-3.04225,1.21911,-1.16807,-8.81444,0,12242,49.288,24.052,11854.7
3013715464,0.634766,2.223,96.1094,-0.347495,0.0728527,0.869178,2.55075,-2.59635,0.000127301,-0.397063,-3.02917,1.15526,-1.17246,-8.68573,0,12242,49.288,24.052,11854.7
3013815825,0.634766,2.223,96.0981,-0.351083,0.0767389,0.86847,2.76832,-2.83147,-0.00513925,-0.434958,-2.92268,1.33068,-1.15792,-8.54892,0,12242,49.288,24.052,11854.7
3013916299,0.634767,2.223,96.0912,-0.349205,0.0747953,0.868902,2.99301,-3.06958,-0.00823295,-0.420954,-3.0525,1.19429,-1.15481,-8.40679,0,12242,49.288,24.052,11854.7
3014016704,0.634767,2.223,96.0792,-0.340635,0.0694732,0.870214,3.21086,-3.29974,-0.0229683,-0.382546,-2.91722,1.29246,-1.15518,-8.25283,0,12242,49.288,24.052,11854.7
3014117111,0.634767,2.223,96.0643,-0.332466,0.0663516,0.870792,3.43466,-3.51877,0.00303295,-0.254414,-2.78603,1.6191,-1.14949,-8.09615,0,12242,49.288,24.052,11854.7
3014217704,0.634767,2.223,96.0588,-0.330033,0.0679449,0.869863,3.64791,-3.72039,0.0182753,-0.2352,-2.81927,1.04516,-1.12837,-7.9248,0,12242,49.288,24.052,11854.7
3014318084,0.634767,2.223,96.0626,-0.328946,0.0695865,0.868833,3.84463,-3.91032,0.0136492,-0.241205,-2.65767,0.808158,-1.10651,-7.74685,0,12242,49.288,24.052,11854.7
3014418442,0.634767,2.223,96.0699,-0.326015,0.0724455,0.867926,4.03051,-4.0977,0.0228676,-0.302504,-2.5548,1.00089,-1.08362,-7.55331,0,12242,49.288,24.052,11854.7
3014518813,0.634767,2.223,96.0791,-0.320131,0.0777325,0.86605,4.20432,-4.28168,0.0159429,-0.347984,-2.51308,0.663702,-1.05441,-7.35828,0,12242,49.288,24.052,11854.7
3014619178,0.634767,2.223,96.0942,-0.307779,0.0863783,0.864367,4.36757,-4.45894,0.0180312,-0.297861,-2.43804,0.782425,-1.02515,-7.14799,0,12242,49.18,26.95,13254
3014719527,0.634767,2.223,96.1051,-0.268411,0.0941237,0.864075,4.51582,-4.63695,0.00856777,-0.499775,-2.25737,0.553189,-1.00649,-6.93467,0,12242,49.18,26.95,13254
3014819894,0.634767,2.223,96.1112,-0.213716,0.0934472,0.865935,4.61808,-4.78368,0.016517,-0.487084,-1.73652,0.433517,-1.00098,-6.711,0,12242,49.18,26.95,13254
3014920311,0.634767,2.223,96.1125,-0.158987,0.0881221,0.868437,4.67049,-4.88832,0.0154309,-0.510824,-1.1181,0.18612,-0.997697,-6.48861,0,12242,49.18,26.95,13254
3015020668,0.634767,2.223,96.1152,-0.111384,0.0807974,0.871118,4.68243,-4.94812,0.00843167,-0.405034,-0.592303,0.000177465,-0.991996,-6.25684,0,12242,49.18,26.95,13254
3015120993,0.634767,2.223,96.1099,-0.0710167,0.0691868,0.874075,4.66622,-4.97817,-0.00197742,-0.361402,-0.190752,-0.0869697,-0.984258,-6.02927,0,12242,49.18,26.95,13254
3015221359,0.634767,2.223,96.106,-0.033687,0.0610982,0.875321,4.64347,-4.96967,-0.0158192,-0.137455,0.123622,-0.13577,-0.963354,-5.79489,0,12242,49.18,26.95,13254
3015321687,0.634767,2.223,96.103,0.00304649,0.0545924,0.876091,4.59115,-4.93223,-0.0374906,-0.0597325,0.53383,0.0560377,-0.93899,-5.57516,0,12242,49.18,26.95,13254
3015422125,0.634767,2.223,96.1054,0.034158,0.0471657,0.877326,4.51134,-4.85915,-0.0225283,0.0437313,0.936769,0.105196,-0.916549,-5.35038,0,12242,49.18,26.95,13254
3015522473,0.634768,2.223,96.1049,0.0626718,0.0422828,0.878296,4.41283,-4.76123,-0.0227336,0.113603,1.18674,0.0336379,-0.892729,-5.14264,0,12242,49.18,26.95,13254
3015622789,0.634768,2.223,96.1024,0.082828,0.0383629,0.878558,4.29984,-4.65214,-0.0225172,0.0958832,1.39939,-0.029669,-0.864849,-4.9295,0,12242,49.18,26.95,13254
3015723141,0.634768,2.223,96.106,0.0980174,0.0349814,0.87844,4.16087,-4.52421,-0.016417,0.0771732,1.64354,0.157345,-0.836601,-4.7363,0,12242,49.075,27.729,13608
3015823522,0.634768,2.223,96.1147,0.109423,0.0340093,0.878734,4.02221,-4.38257,-0.012738,0.154052,1.74572,-0.006874,-0.809899,-4.53718,0,12242,49.075,27.729,13608
3015923872,0.634768,2.223,96.116,0.116086,0.0316312,0.878625,3.87886,-4.2446,-0.0222672,0.089568,1.71684,0.0372293,-0.782438,-4.35927,0,12242,49.075,27.729,13608
3016024229,0.634768,2.223,96.1111,0.117276,0.0291801,0.878577,3.73324,-4.09906,-0.0275821,0.23524,1.73076,0.332409,-0.755102,-4.17659,0,12242,49.075,27.729,13608
3016127476,0.634768,2.223,96.1063,0.118269,0.0275832,0.878846,3.58698,-3.95934,-0.0210904,0.126925,1.74686,0.221427,-0.730294,-4.01382,0,12242,49.075,27.729,13608
3016230966,0.634768,2.223,96.1055,0.110293,0.0268996,0.879214,3.44057,-3.80391,-0.0211183,0.222637,1.88372,0.179291,-0.705795,-3.84646,0,12242,49.075,27.729,13608
3016331763,0.634768,2.223,96.0942,0.107772,0.0255507,0.879382,3.31047,-3.67232,-0.028501,0.155143,1.65139,0.289381,-0.657271,-3.55124,0,12242,49.075,27.729,13608
3016435690,0.634768,2.223,96.0881,0.10606,0.0251947,0.879043,3.14957,-3.51969,-0.0232192,0.107357,1.57635,0.322146,-0.630975,-3.41492,0,12242,49.075,27.729,13608
3016536136,0.634768,2.223,96.0836,0.113779,0.0190069,0.878925,3.01855,-3.38082,-0.0184832,0.233401,1.67931,0.200402,-0.605828,-3.27419,0,12242,49.075,27.729,13608
3016636463,0.634768,2.223,96.0729,0.110178,0.0181275,0.878698,2.88402,-3.2451,-0.0316812,0.178298,1.63342,0.326756,-0.580598,-3.14692,0,12242,49.176,24.862,12226.1
3016736855,0.634768,2.223,96.0657,0.10517,0.0149145,0.878304,2.76958,-3.10958,-0.0228244,0.332376,1.54153,0.345404,-0.556071,-3.01953,0,12242,49.176,24.862,12226.1
3016837246,0.634768,2.223,96.0682,0.0981804,0.0168168,0.878633,2.65261,-2.98085,-0.0145191,0.262896,1.56699,0.338676,-0.53379,-2.89954,0,12242,49.176,24.862,12226.1
3016938059,0.634768,2.223,96.0687,0.0964268,0.0164469,0.878756,2.54574,-2.85747,-0.00297739,0.289632,1.48246,0.230064,-0.512314,-2.77977,0,12242,49.176,24.862,12226.1
3017039104,0.634768,2.223,96.0697,0.0887866,0.0193406,0.878782,2.44637,-2.73804,-0.00453679,0.290309,1.39378,0.0183274,-0.490427,-2.6649,0,12242,49.176,24.862,12226.1
3017139516,0.634768,2.223,96.0712,0.0830586,0.0213838,0.87908,2.35519,-2.63178,-0.00298325,0.238732,1.23287,0.116843,-0.470957,-2.55216,0,12242,49.176,24.862,12226.1
3017239850,0.634768,2.223,96.0686,0.0777049,0.0222487,0.879195,2.26649,-2.53835,0.000605579,0.201126,1.17029,0.0943934,-0.451536,-2.44358,0,12242,49.176,24.862,12226.1
3017340283,0.634768,2.223,96.0668,0.0757285,0.0218995,0.879412,2.18523,-2.44965,-0.0016871,0.226827,1.11144,0.00495966,-0.433663,-2.33842,0,12242,49.176,24.862,12226.1
3017440681,0.634768,2.223,96.0653,0.0737594,0.0214161,0.879435,2.1116,-2.36949,-0.00788289,0.208728,1.02453,0.0923598,-0.415072,-2.23297,0,12242,49.176,24.862,12226.1
3017541021,0.634768,2.223,96.0676,0.0760369,0.0189163,0.879479,2.04126,-2.28153,0.00685548,0.303578,1.07046,0.0205435,-0.397657,-2.13153,0,12242,49.176,24.862,12226.1
3017641364,0.634768,2.223,96.0703,0.0759693,0.0189328,0.879343,1.96769,-2.19758,0.00683372,0.245605,1.08874,0.0127617,-0.378176,-2.02762,0,12242,49.176,24.862,12226.1
3017741746,0.634768,2.223,96.0696,0.0795316,0.0184845,0.879433,1.90572,-2.11933,0.00295589,0.239357,0.987071,0.0329877,-0.360862,-1.92998,0,12239,49.218,25.363,12483.2
3017842152,0.634769,2.223,96.0656,0.0827665,0.0187892,0.879455,1.83752,-2.03611,0.00166577,0.227884,1.03674,0.221076,-0.342635,-1.83115,0,12239,49.218,25.363,12483.2
3017942598,0.634769,2.223,96.0656,0.0869421,0.0197001,0.879395,1.77459,-1.9497,0.00245538,0.291833,1.11446,-0.172215,-0.326583,-1.73962,0,12239,49.218,25.363,12483.2
3018042970,0.634769,2.223,96.0669,0.0878367,0.0207458,0.879506,1.70004,-1.86109,-0.000617409,0.234113,1.11501,0.190208,-0.31106,-1.64781,0,12239,49.218,25.363,12483.2
3018143338,0.634769,2.223,96.0702,0.0901504,0.0213431,0.879652,1.62772,-1.78109,0.00686725,0.201493,1.10378,0.086504,-0.297501,-1.56333,0,12239,49.218,25.363,12483.2
3018243702,0.634769,2.223,96.0644,0.0885776,0.0233533,0.879989,1.55565,-1.69473,0.0015319,0.223143,1.11432,0.108968,-0.283737,-1.48114,0,12239,49.218,25.363,12483.2
3018344050,0.634769,2.223,96.059,0.0882592,0.0250714,0.880356,1.48291,-1.61045,-0.00202906,0.23624,1.11976,0.154404,-0.271563,-1.40555,0,12239,49.218,25.363,12483.2
3018444441,0.634769,2.223,96.054,0.0870697,0.026159,0.880527,1.41121,-1.53677,-1.86167e-05,0.140508,1.06101,0.000171028,-0.258481,-1.33146,0,12239,49.218,25.363,12483.2
3018544820,0.634769,2.223,96.0483,0.0820879,0.0267594,0.880465,1.34313,-1.4621,-0.0140782,0.195458,1.05314,0.125349,-0.246586,-1.2629,0,12239,49.218,25.363,12483.2
3018645189,0.634769,2.223,96.0364,0.0819045,0.0273987,0.881172,1.28171,-1.38686,-0.010604,0.219815,0.980937,0.104882,-0.234156,-1.1958,0,12239,49.218,25.363,12483.2
3018745557,0.634769,2.223,96.0263,0.0792143,0.027382,0.881135,1.21321,-1.31392,-0.0166516,0.208295,0.937701,0.193148,-0.222636,-1.13412,0,12239,49.164,25.806,12687.3
3018845903,0.634769,2.223,96.0191,0.0750041,0.0280547,0.881153,1.15202,-1.24371,-0.000113621,0.243838,0.931606,0.305686,-0.209751,-1.07463,0,12239,49.164,25.806,12687.3
3018946226,0.634769,2.223,96.0098,0.0747824,0.0273782,0.881274,1.0963,-1.18233,0.0117809,0.219045,0.781175,0.276569,-0.199043,-1.0196,0,12239,49.164,25.806,12687.3
3019046508,0.634769,2.223,96.0107,0.0700414,0.0279645,0.881597,1.0323,-1.11841,0.00706634,0.153448,0.898631,0.0732213,-0.18809,-0.966674,0,12239,49.164,25.806,12687.3
3019146885,0.634769,2.223,96.015,0.0657632,0.0277465,0.882023,0.969983,-1.05981,0.023071,0.108084,0.827598,0.184313,-0.179015,-0.917702,0,12239,49.164,25.806,12687.3
3019247221,0.634769,2.223,96.0215,0.0622371,0.0277087,0.881824,0.919268,-1.00386,0.0196571,0.17595,0.722806,0.0747401,-0.168234,-0.873488,0,12239,49.164,25.806,12687.3
3019347645,0.634769,2.223,96.0351,0.0608155,0.0282454,0.8821,0.864329,-0.945493,0.0208202,0.12388,0.830425,0.0322429,-0.159508,-0.831868,0,12239,49.164,25.806,12687.3
3019448072,0.634769,2.223,96.043,0.057691,0.0282232,0.882415,0.812037,-0.897175,0.0260551,0.105623,0.729426,-0.034685,-0.149845,-0.793302,0,12239,49.164,25.806,12687.3
3019548434,0.634769,2.223,96.0462,0.0552299,0.0266971,0.882534,0.763038,-0.846875,0.0198878,0.159277,0.697018,-0.152967,-0.141408,-0.756608,0,12239,49.164,25.806,12687.3
3019648795,0.634769,2.223,96.0495,0.0526877,0.0278168,0.882571,0.714324,-0.795802,0.021195,0.14962,0.696053,0.0269088,-0.13069,-0.722914,0,12239,49.164,25.806,12687.3
3019749208,0.634769,2.223,96.0524,0.0500919,0.027777,0.882601,0.6695,-0.756582,0.0151546,0.0551431,0.607478,-0.00201847,-0.121635,-0.691102,0,12198,49.168,25.445,12510.8
3019849524,0.634769,2.223,96.051,0.0452395,0.0261113,0.882279,0.628862,-0.721636,0.00553445,0.0747908,0.587534,0.0464258,-0.11186,-0.660199,0,12198,49.168,25.445,12510.8
3019949889,0.634769,2.223,96.0422,0.0420251,0.0245132,0.882359,0.594588,-0.683952,0.00741121,0.11961,0.498006,0.135384,-0.104059,-0.630982,0,12198,49.168,25.445,12510.8
3020050239,0.634769,2.223,96.0392,0.0406058,0.0231516,0.882064,0.559379,-0.647366,0.0100048,0.141291,0.52225,0.0356743,-0.0947743,-0.603235,0,12198,49.168,25.445,12510.8
3020150598,0.634769,2.223,96.0424,0.0403278,0.0232102,0.881513,0.528919,-0.612305,0.0193366,0.115389,0.463842,-0.0630923,-0.086773,-0.577572,0,12198,49.168,25.445,12510.8
3020250977,0.634769,2.223,96.0462,0.0386429,0.0224521,0.881239,0.503721,-0.579416,0.0134365,0.145397,0.401356,0.00966766,-0.078476,-0.553359,0,12198,49.168,25.445,12510.8
3020351358,0.634769,2.223,96.0576,0.0378344,0.021569,0.881273,0.485564,-0.546572,0.0232214,0.217183,0.385465,0.104873,-0.0717668,-0.530615,0,12198,49.168,25.445,12510.8
3020451804,0.634769,2.223,96.0663,0.0373786,0.0223483,0.881142,0.464162,-0.514756,0.0273116,0.17029,0.407404,-0.101848,-0.0650122,-0.507947,0,12198,49.168,25.445,12510.8
3020552211,0.634769,2.223,96.0789,0.0384904,0.0230651,0.881039,0.442386,-0.470815,0.0203184,0.182046,0.393156,-0.104944,-0.0596606,-0.486908,0,12198,49.168,25.445,12510.8
3020652574,0.634769,2.223,96.0914,0.0376656,0.0238263,0.881045,0.417451,-0.443081,0.0201978,0.080888,0.426189,-0.131867,-0.055148,-0.464856,0,12198,49.168,25.445,12510.8
3020752986,0.634769,2.223,96.0979,0.0368525,0.0238536,0.881108,0.392819,-0.416321,0.0117732,0.0984536,0.340307,-0.131785,-2.3,1.9,0,12198,49.174,25.563,12570.3
3020853338,0.634769,2.223,96.0994,0.0374383,0.0247228,0.881148,0.374503,-0.390045,0.00398753,0.0873977,0.35145,-0.106774,-2.3,1.9,0,12198,49.174,25.563,12570.3
3020953685,0.634769,2.223,96.1068,0.0519298,0.023534,0.881157,0.340012,-0.364869,0.00221721,0.015083,0.509828,-0.154738,-2.3,1.9,0,12198,49.174,25.563,12570.3
3021054045,0.634769,2.223,96.1104,0.0631335,0.0214933,0.881044,0.311222,-0.322382,0.0059314,0.153877,0.548075,0.0437907,-2.3,1.9,0,12198,49.174,25.563,12570.3
3021154392,0.634769,2.223,96.1139,0.0715297,0.0221806,0.88127,0.264269,-0.262396,0.00163366,0.175899,0.799495,-0.182577,-2.3,1.9,0,12198,49.174,25.563,12570.3
3021254754,0.634769,2.223,96.1133,0.0718639,0.0238524,0.881538,0.220922,-0.211173,-0.00776745,0.14766,0.674665,-0.0134993,-2.3,1.9,0,12198,49.174,25.563,12570.3
3021355106,0.634769,2.223,96.1194,0.0698727,0.0242411,0.881774,0.17449,-0.160246,-0.0124728,0.116608,0.664753,0.0107719,-2.3,1.9,0,12198,49.174,25.563,12570.3
3021455456,0.634769,2.223,96.1196,0.0649889,0.0242898,0.881755,0.126688,-0.10783,-0.0049198,0.140712,0.688074,-0.124936,-2.3,1.9,0,12198,49.174,25.563,12570.3
3021555758,0.634769,2.223,96.1093,0.0599393,0.0247286,0.881833,0.0914254,-0.0672001,-0.0143299,0.0937618,0.527321,-0.102607,-2.3,1.9,0,12198,49.174,25.563,12570.3
3021656213,0.634769,2.223,96.1033,0.0524086,0.0242602,0.881563,0.0581408,-0.0296074,-0.0187806,0.119565,0.429106,0.163586,-2.3,1.9,0,12198,49.174,25.563,12570.3
3021756663,0.634769,2.223,96.0998,0.0461048,0.0248917,0.88155,0.0372517,0.00298899,-0.0185169,0.121229,0.289715,0.135628,-2.3,1.9,0,12198,49.174,25.563,12570.3
3021857039,0.634769,2.223,96.0927,0.046059,0.0320002,0.882829,0.00970013,0.0392247,-0.0132976,0.131014,0.453074,0.144769,-2.3,1.9,0,12198,49.15,25.696,12629.6
3021957333,0.634769,2.223,96.0896,0.105139,0.124634,0.889937,-0.0284413,0.063231,0.0251663,-0.264488,0.622635,-0.0770653,-2.3,1.9,0,12198,49.15,25.696,12629.6
3022057694,0.634769,2.223,96.0878,0.18453,0.221026,0.903624,-0.197116,0.0500115,-0.0395182,-1.2815,1.33447,0.0617025,-2.3,1.9,0,12198,49.15,25.696,12629.6
3022158061,0.634769,2.223,96.0873,0.240708,0.286427,0.917743,-0.50166,0.00375883,-0.0653502,-2.16491,1.96358,1.16559,-2.3,1.9,0,12198,49.15,25.696,12629.6
3022258408,0.634769,2.223,96.0877,0.27276,0.317084,0.926447,-0.889409,-0.0602155,-0.0492113,-2.66208,2.33608,1.72308,-2.3,1.9,0,12198,49.15,25.696,12629.6
3022358873,0.634769,2.223,96.0925,0.284659,0.325226,0.928917,-1.30876,-0.122825,-0.0345294,-2.78369,2.57502,1.81084,-2.3,1.9,0,12198,49.15,25.696,12629.6
3022459276,0.634769,2.223,96.0845,0.256439,0.298544,0.92132,-1.71715,-0.180059,-0.0187022,-2.61947,2.46327,1.70686,-2.3,1.9,0,12198,49.15,25.696,12629.6
3022559679,0.634769,2.223,96.0786,0.217787,0.261057,0.911319,-2.06881,-0.233622,0.00332288,-2.32451,2.09717,1.34929,-2.3,1.9,0,12198,49.15,25.696,12629.6
3022663811,0.634769,2.223,96.0822,0.180088,0.224263,0.902576,-2.35632,-0.276525,0.0161946,-1.86231,1.75272,0.96048,-2.3,1.9,0,12198,49.15,25.696,12629.6
3022770186,0.634769,2.223,96.0922,0.144506,0.188755,0.896163,-2.57535,-0.316352,0.0216321,-1.51368,1.35022,0.387773,3.2,-4.3,0,12198,49.15,25.696,12629.6
3022871117,0.634769,2.223,96.1011,0.104394,0.145354,0.88761,-2.74323,-0.35319,0.0287938,-1.13975,0.926951,0.419135,3.2,-4.3,0,12198,49.169,25.344,12461.4
3022971509,0.634769,2.223,96.1079,-0.06742,-0.0379025,0.877418,-2.87317,-0.375935,0.081854,-0.595019,0.584955,0.664392,3.2,-4.3,0,12198,49.169,25.344,12461.4
3023071888,0.634769,2.223,96.1275,-0.226859,-0.177744,0.899045,-2.59477,-0.351312,0.0870394,2.08353,-2.12391,-0.192599,3.2,-4.3,0,12198,49.169,25.344,12461.4
3023172305,0.634769,2.223,96.1383,-0.316894,-0.250682,0.918888,-2.19653,-0.346028,0.00475177,2.70831,-3.12021,0.992768,3.2,-4.3,0,12198,49.169,25.344,12461.4
3023272659,0.634769,2.223,96.1359,-0.367766,-0.288514,0.931792,-1.68262,-0.334026,-0.0322352,3.2133,-3.52262,1.99628,3.2,-4.3,0,12198,49.169,25.344,12461.4
3023373026,0.634768,2.223,96.122,-0.393615,-0.307566,0.939548,-1.12042,-0.31788,-0.0739014,3.48348,-3.81099,2.09606,3.2,-4.3,0,12198,49.169,25.344,12461.4
3023473378,0.634768,2.223,96.0911,-0.398802,-0.312339,0.940698,-0.527187,-0.298291,-0.104178,3.43407,-3.67522,3.00943,3.2,-4.3,0,12198,49.169,25.344,12461.4
3023573740,0.634768,2.223,96.0545,-0.392717,-0.306324,0.93774,0.0851661,-0.284812,-0.1055,3.35865,-3.74311,3.13356,3.2,-4.3,0,12198,49.169,25.344,12461.4
3023674070,0.634769,2.223,96.0345,-0.38129,-0.298473,0.934994,0.691214,-0.269921,-0.0877181,3.36381,-3.7442,2.91187,3.2,-4.3,0,12198,49.169,25.344,12461.4
3023774420,0.634769,2.223,96.0259,-0.368532,-0.287801,0.931805,1.27253,-0.250571,-0.0675204,3.1618,-3.41607,3.08494,3.2,-4.3,0,12198,49.169,25.344,12461.4
3023874756,0.634769,2.223,96.0233,-0.348997,-0.273136,0.926585,1.82159,-0.226782,-0.0338762,3.09041,-3.29026,2.44957,3.2,-4.3,0,12195,49.149,25.073,12323.1
3023975037,0.634769,2.223,96.0263,-0.334029,-0.261978,0.922885,2.33989,-0.207686,-0.0190203,2.90425,-3.18887,2.15781,3.2,-4.3,0,12195,49.149,25.073,12323.1
3024075369,0.634769,2.223,96.0395,-0.32248,-0.251009,0.919514,2.82016,-0.182988,0.00822848,2.74523,-2.91167,1.89975,3.2,-4.3,0,12195,49.149,25.073,12323.1
3024175701,0.634769,2.223,96.0595,-0.308014,-0.23677,0.91588,3.26675,-0.155505,0.0194983,2.63677,-2.77206,1.5671,3.2,-4.3,0,12195,49.149,25.073,12323.1
3024276076,0.634769,2.223,96.0863,-0.270035,-0.201915,0.906311,3.67949,-0.134674,0.0347945,2.33926,-2.59252,1.16501,3.2,-4.3,0,12195,49.149,25.073,12323.1
3024376370,0.634769,2.223,96.1065,-0.227335,-0.164856,0.897478,4.01034,-0.121204,0.0293094,1.8742,-2.1164,0.834524,3.2,-4.3,0,12195,49.149,25.073,12323.1
3024476712,0.634769,2.223,96.1208,-0.185796,-0.129739,0.89029,4.26772,-0.109017,0.02389,1.44633,-1.72494,0.346418,3.2,-4.3,0,12195,49.149,25.073,12323.1
3024577044,0.634769,2.223,96.1339,-0.15365,-0.100804,0.885696,4.46702,-0.104624,0.017891,1.12236,-1.37278,0.142141,3.2,-4.3,0,12195,49.149,25.073,12323.1
3024678372,0.634769,2.223,96.1451,-0.130028,-0.080116,0.883051,4.62018,-0.0903428,0.00661696,0.919751,-0.996654,0.0218911,3.2,-4.3,0,12195,49.149,25.073,12323.1
3024779224,0.634769,2.223,96.1529,-0.115319,-0.0620621,0.881075,4.73908,-0.0799884,0.00182984,0.698544,-0.835852,0.186302,4.2,-1,0,12195,49.149,25.073,12323.1
3024879611,0.634769,2.223,96.1649,-0.0711419,-0.0545826,0.876373,4.83879,-0.0778379,0.00191358,0.588942,-0.803115,0.0910341,4.2,-1,0,12195,49.061,28.32,13894.1
3024980046,0.634769,2.223,96.1775,0.142876,-0.0931648,0.867992,4.87183,-0.0392306,0.0442009,0.546021,0.390487,0.217497,4.2,-1,0,12195,49.061,28.32,13894.1
3025080402,0.634769,2.223,96.1875,0.308235,-0.127641,0.860227,4.73613,0.201051,0.00179157,1.11607,2.79042,-0.250951,4.2,-1,0,12195,49.061,28.32,13894.1
3025180756,0.63477,2.223,96.1903,0.39743,-0.155051,0.854535,4.51766,0.543585,-0.0650202,1.28335,3.66663,1.33878,4.2,-1,0,12195,49.061,28.32,13894.1
3025281084,0.63477,2.223,96.1771,0.41103,-0.164489,0.855946,4.2463,0.978203,-0.0870744,1.5502,4.21842,2.13897,4.2,-1,0,12195,49.061,28.32,13894.1
3025381394,0.63477,2.223,96.1715,0.355027,-0.153213,0.864809,3.97588,1.41231,-0.0761603,1.5665,4.11072,1.85226,4.2,-1,0,12195,49.061,28.32,13894.1
3025481713,0.63477,2.223,96.1594,0.272964,-0.133859,0.873365,3.74689,1.77171,-0.0566377,1.30764,3.34563,1.57501,4.2,-1,0,12195,49.061,28.32,13894.1
3025582069,0.63477,2.223,96.1384,0.194817,-0.114219,0.878265,3.57734,2.04708,-0.0444814,1.03469,2.54906,0.778834,4.2,-1,0,12195,49.061,28.32,13894.1
3025682460,0.63477,2.223,96.135,0.134214,-0.0976967,0.879666,3.45855,2.25282,-0.0286082,0.797332,1.79266,0.56956,4.2,-1,0,12195,49.061,28.32,13894.1
3025782819,0.63477,2.223,96.1415,0.0882204,-0.0853086,0.879713,3.37995,2.40518,-0.025859,0.715739,1.21379,0.134601,4.2,-1,0,12195,49.061,28.32,13894.1
3025883172,0.63477,2.223,96.1406,0.0538701,-0.0754518,0.879732,3.33045,2.51849,-0.0289583,0.562851,0.749835,0.030242,4.2,-1,0,12195,49.041,28.316,13886.4
3025983514,0.63477,2.223,96.1384,0.0305996,-0.0690408,0.879494,3.30533,2.60361,-0.0252711,0.477924,0.458054,0.158459,4.2,-1,0,12195,49.041,28.316,13886.4
3026083857,0.63477,2.223,96.1454,0.0158888,-0.0617591,0.879459,3.28822,2.6664,-0.0202536,0.403554,0.296223,-0.0681958,4.2,-1,0,12195,49.041,28.316,13886.4
3026184266,0.63477,2.223,96.1534,0.00632843,-0.0568852,0.879188,3.28528,2.71768,-0.0227859,0.409011,0.121149,0.0729995,4.2,-1,0,12195,49.041,28.316,13886.4
3026284658,0.63477,2.223,96.1535,-0.00149779,-0.0528297,0.879626,3.28216,2.76097,-0.0207834,0.352551,0.153701,0.0734503,4.2,-1,0,12195,49.041,28.316,13886.4
3026384978,0.63477,2.223,96.1513,-0.00790225,-0.0509948,0.880072,3.28091,2.77912,-0.0269255,0.184745,-0.00412738,-0.0328341,4.2,-1,0,12195,49.041,28.316,13886.4
3026485331,0.63477,2.223,96.1501,-0.0111249,-0.048423,0.880437,3.28931,2.79398,-0.02945,0.213019,-0.0566571,-0.119301,4.2,-1,0,12195,49.041,28.316,13886.4
3026585678,0.63477,2.223,96.1472,-0.0104598,-0.0459485,0.880418,3.29852,2.80118,-0.0299328,0.195495,-0.0849236,-0.00852518,4.2,-1,0,12195,49.041,28.316,13886.4
3026686016,0.63477,2.223,96.1423,-0.0090037,-0.0444469,0.880356,3.30778,2.80461,-0.030249,0.166887,-0.0725923,0.179099,4.2,-1,0,12195,49.041,28.316,13886.4
3026786455,0.63477,2.223,96.1371,-0.00906789,-0.0438267,0.880836,3.31459,2.81139,-0.0340914,0.158642,0.0425669,-0.0781078,-0.1,3.7,0,12195,49.041,28.316,13886.4
3026886824,0.63477,2.223,96.1399,-0.000397532,-0.0317158,0.881933,3.32658,2.82238,-0.0381577,0.20841,0.0318416,0.0119587,-0.1,3.7,0,12195,49.041,28.316,13886.4
3026987198,0.63477,2.223,96.1447,0.112598,0.100178,0.887393,3.32181,2.83208,0.025689,-0.157663,0.330664,0.37393,-0.1,3.7,0,12154,49.021,28.271,13858.7
3027087610,0.63477,2.223,96.1555,0.234326,0.210054,0.906675,3.08886,2.79017,-0.013201,-1.89003,1.83159,-0.428542,-0.1,3.7,0,12154,49.021,28.271,13858.7
3027187872,0.634771,2.223,96.1592,0.313115,0.276054,0.927549,2.7134,2.75265,-0.0781825,-2.52272,2.63609,1.42321,-0.1,3.7,0,12154,49.021,28.271,13858.7
3027288288,0.634771,2.223,96.162,0.354279,0.30775,0.940229,2.22671,2.70806,-0.0751112,-3.04534,3.21323,2.03368,-0.1,3.7,0,12154,49.021,28.271,13858.7
3027388647,0.634771,2.223,96.1717,0.36448,0.313619,0.944172,1.70371,2.6588,-0.0716751,-3.14462,3.28619,2.28243,-0.1,3.7,0,12154,49.021,28.271,13858.7
3027489005,0.634771,2.223,96.1708,0.357931,0.303551,0.941729,1.18636,2.61328,-0.0568741,-3.13759,3.30601,2.24009,-0.1,3.7,0,12154,49.021,28.271,13858.7
3027589324,0.634771,2.223,96.1606,0.347929,0.289331,0.936861,0.694533,2.57171,-0.0494376,-2.94511,3.14684,2.16769,-0.1,3.7,0,12154,49.021,28.271,13858.7
3027689689,0.634771,2.223,96.1628,0.340641,0.276874,0.932671,0.235811,2.53964,-0.0431121,-2.69998,2.96982,2.01214,-0.1,3.7,0,12154,49.021,28.271,13858.7
3027790048,0.634771,2.223,96.174,0.334163,0.261559,0.928386,-0.207168,2.51089,-0.0408957,-2.63178,2.94067,1.65305,-0.1,3.7,0,12154,49.021,28.271,13858.7
3027890430,0.634771,2.223,96.1806,0.326587,0.245905,0.923813,-0.624434,2.49146,-0.0369376,-2.41092,2.80939,1.54862,-0.1,3.7,0,12154,49.021,28.271,13858.7
3027990814,0.634771,2.223,96.1833,0.323712,0.232386,0.919327,-1.01439,2.48242,-0.0335854,-2.16752,2.64711,1.53635,-0.1,3.7,0,12154,49.082,26.484,12998.9
3028091171,0.634771,2.223,96.188,0.302097,0.20751,0.911284,-1.39757,2.48534,-0.0297998,-2.11363,2.68132,1.30036,-0.1,3.7,0,12154,49.082,26.484,12998.9
3028191523,0.634771,2.223,96.1887,0.266076,0.176335,0.902465,-1.72425,2.49077,-0.0302688,-1.76366,2.27917,1.04229,-0.1,3.7,0,12154,49.082,26.484,12998.9
3028291949,0.63477,2.223,96.189,0.232569,0.14729,0.895312,-1.99594,2.50809,-0.0262109,-1.31741,1.95983,0.958794,-0.1,3.7,0,12154,49.082,26.484,12998.9
3028392334,0.63477,2.223,96.1891,0.198976,0.124497,0.890644,-2.25975,2.5318,-0.0198503,-1.07819,1.64596,0.371012,-0.1,3.7,0,12154,49.082,26.484,12998.9
3028492640,0.63477,2.223,96.187,0.172032,0.106054,0.887629,-2.42781,2.54432,-0.0316352,-0.903077,1.31412,0.192108,-0.1,3.7,0,12154,49.082,26.484,12998.9
3028592981,0.63477,2.223,96.186,0.148408,0.0911719,0.885298,-2.56378,2.5491,-0.0363517,-0.710053,1.0775,0.117282,-0.1,3.7,0,12154,49.082,26.484,12998.9
3028693347,0.63477,2.223,96.191,0.130211,0.0779058,0.884313,-2.67482,2.56129,-0.0471384,-0.525186,0.909921,0.144401,-0.1,3.7,0,12154,49.082,26.484,12998.9
3028793765,0.63477,2.223,96.1953,0.115262,0.0717263,0.883643,-2.76531,2.56643,-0.0420572,-0.435823,0.718191,0.123361,2.4,-4.5,0,12154,49.082,26.484,12998.9
3028894118,0.63477,2.223,96.1994,0.08296,0.0572205,0.882894,-2.83406,2.55725,-0.0390202,-0.451364,0.535655,0.274775,2.4,-4.5,0,12154,49.082,26.484,12998.9
3028996340,0.63477,2.223,96.2001,-0.125387,-0.0259474,0.880226,-2.83771,2.5245,0.0332708,-0.0436002,-0.433411,0.712991,2.4,-4.5,0,12154,49.099,26.484,13003.4
3029101416,0.63477,2.223,96.217,-0.324693,-0.0949635,0.896536,-2.55079,2.41224,0.0293058,1.01081,-3.10301,0.103823,2.4,-4.5,0,12154,49.099,26.484,13003.4
3029201746,0.63477,2.223,96.2285,-0.42442,-0.123495,0.909887,-2.13339,2.25354,-0.0501626,1.37894,-3.99896,1.53231,2.4,-4.5,0,12154,49.099,26.484,13003.4
3029302103,0.63477,2.223,96.2226,-0.478544,-0.130342,0.915263,-1.61304,2.04984,-0.0741062,1.60749,-4.73838,2.19927,2.4,-4.5,0,12154,49.099,26.484,13003.4
3029402443,0.63477,2.223,96.2084,-0.501328,-0.123822,0.913699,-1.0619,1.81679,-0.114693,1.40157,-4.80939,2.74179,2.4,-4.5,0,12154,49.099,26.484,13003.4
3029502818,0.63477,2.223,96.1832,-0.499089,-0.118899,0.911844,-0.504731,1.5603,-0.141543,1.32169,-5.00096,2.66449,2.4,-4.5,0,12154,49.099,26.484,13003.4
3029603169,0.63477,2.223,96.1517,-0.4917,-0.113189,0.908391,0.0498301,1.2997,-0.142314,1.24967,-4.84091,3.07358,2.4,-4.5,0,12154,49.099,26.484,13003.4
3029703925,0.63477,2.223,96.1327,-0.482094,-0.112007,0.907246,0.599675,1.03225,-0.133832,1.09067,-4.75543,3.2427,2.4,-4.5,0,12154,49.099,26.484,13003.4
3029804981,0.63477,2.223,96.1247,-0.462312,-0.111138,0.904824,1.14859,0.783043,-0.101495,1.21527,-4.72289,2.78899,2.4,-4.5,0,12154,49.099,26.484,13003.4
3029905316,0.63477,2.223,96.1247,-0.439693,-0.108962,0.903107,1.65727,0.553588,-0.0695701,1.12884,-4.3797,2.52917,2.4,-4.5,0,12154,49.099,26.484,13003.4
3030005643,0.63477,2.223,96.126,-0.417888,-0.106292,0.901684,2.13601,0.345871,-0.0409726,1.1568,-4.17383,2.08525,2.4,-4.5,0,12110,49.066,28.292,13881.8
3030106047,0.63477,2.223,96.1381,-0.398823,-0.102743,0.900309,2.57982,0.16076,-0.0276775,1.13893,-3.86346,1.82112,2.4,-4.5,0,12110,49.066,28.292,13881.8
3030206352,0.63477,2.223,96.1543,-0.384412,-0.0976777,0.899112,2.98596,-0.0110995,-0.0199447,0.993375,-3.57277,1.65623,2.4,-4.5,0,12110,49.066,28.292,13881.8
3030306704,0.63477,2.223,96.1632,-0.344485,-0.0839621,0.894705,3.36106,-0.17407,-0.0240778,0.878424,-3.39098,1.2958,2.4,-4.5,0,12110,49.066,28.292,13881.8
3030407095,0.63477,2.223,96.168,-0.291855,-0.0678921,0.889874,3.68605,-0.311401,-0.010775,0.815704,-2.97007,0.918296,2.4,-4.5,0,12110,49.066,28.292,13881.8
3030507462,0.634771,2.223,96.1739,-0.239956,-0.0516772,0.885272,3.9392,-0.428964,-0.0121737,0.551874,-2.40975,0.561273,2.4,-4.5,0,12110,49.066,28.292,13881.8
3030607824,0.634771,2.223,96.1835,-0.197673,-0.039001,0.882633,4.13218,-0.509588,-0.0180338,0.455776,-1.82172,0.311649,2.4,-4.5,0,12110,49.066,28.292,13881.8
3030708215,0.634771,2.223,96.1857,-0.164283,-0.0315657,0.88135,4.27863,-0.578828,-0.0209882,0.284447,-1.41865,0.204012,2.4,-4.5,0,12110,49.066,28.292,13881.8
3030808610,0.634771,2.223,96.186,-0.140081,-0.0262789,0.880887,4.3923,-0.631317,-0.023948,0.216319,-1.14192,0.00709373,1.7,0,0,12110,49.066,28.292,13881.8
3030908957,0.634771,2.223,96.1849,-0.106995,-0.0184166,0.877761,4.47618,-0.669989,-0.0369782,0.146897,-0.926254,0.0887739,1.7,0,0,12110,49.066,28.292,13881.8
3031009338,0.634771,2.223,96.1856,0.109907,0.0160536,0.878511,4.5461,-0.694828,0.0183288,0.173808,-0.479927,0.589937,1.7,0,0,12110,49.073,27.91,13696.3
3031109655,0.634771,2.223,96.1923,0.322338,0.0483946,0.887533,4.35087,-0.559543,0.00407247,-0.303509,2.6159,-0.166192,1.7,0,0,12110,49.073,27.91,13696.3
3031209948,0.634771,2.223,96.1942,0.43594,0.0655789,0.894885,3.98988,-0.349321,-0.069405,-0.687514,3.82369,1.4288,1.7,0,0,12110,49.073,27.91,13696.3
3031310222,0.634771,2.223,96.194,0.487777,0.0717144,0.898504,3.52546,-0.0684192,-0.0897766,-0.748251,4.7194,2.1935,1.7,0,0,12110,49.073,27.91,13696.3
3031410594,0.634771,2.223,96.1921,0.490614,0.071974,0.898228,3.01553,0.241005,-0.0978988,-0.775859,4.87685,2.7566,1.7,0,0,12110,49.073,27.91,13696.3
3031510944,0.634771,2.223,96.1885,0.422751,0.0672839,0.895233,2.51705,0.549448,-0.0767716,-0.683787,4.75692,2.63527,1.7,0,0,12110,49.073,27.91,13696.3
3031611266,0.634771,2.223,96.1788,0.337814,0.058574,0.891545,2.1056,0.790041,-0.0449088,-0.674431,3.96955,1.57294,1.7,0,0,12110,49.073,27.91,13696.3
3031713318,0.634771,2.223,96.178,0.258785,0.0445762,0.88645,1.73207,1.00057,-0.0348763,-0.517993,2.90499,0.800829,1.7,0,0,12110,49.073,27.91,13696.3
3031815114,0.634771,2.223,96.1829,0.18664,0.028291,0.881716,1.50223,1.13796,-0.0321367,-0.357357,2.15195,0.34237,1.7,0,0,12110,49.073,27.91,13696.3
3031915471,0.634771,2.223,96.19,0.131154,0.0144341,0.878389,1.34074,1.23798,-0.0290032,-0.200748,1.39622,0.0344938,1.7,0,0,12110,49.073,27.91,13696.3
3032015818,0.634771,2.223,96.1963,0.0959143,0.00389577,0.876919,1.2259,1.32284,-0.0427376,0.0365554,1.02634,0.164871,1.7,0,0,12110,49.073,27.91,13696.3
3032116196,0.634771,2.223,96.2016,0.0670773,-0.00100027,0.876481,1.14298,1.39086,-0.0438447,0.0420177,0.697981,-0.135566,1.7,0,0,12110,49.073,27.91,13696.3
3032216499,0.634771,2.223,96.209,0.0424243,-0.00558957,0.876711,1.08507,1.43532,-0.0506896,0.0604692,0.40053,-0.273442,1.7,0,0,12110,49.073,27.91,13696.3
3032316858,0.634771,2.223,96.2062,0.0231039,-0.00827944,0.87734,1.05498,1.46838,-0.0675402,0.140461,0.200563,-0.110213,1.7,0,0,12110,49.073,27.91,13696.3
3032417198,0.634771,2.223,96.196,0.00916603,-0.00834631,0.878474,1.04378,1.49192,-0.0623124,0.113506,0.0197647,-0.0950242,1.7,0,0,12110,49.073,27.91,13696.3
3032517545,0.634771,2.223,96.1873,0.00148892,-0.00722592,0.879762,1.04223,1.49804,-0.0595374,0.0754679,-0.0745594,0.077589,1.7,0,0,12110,49.073,27.91,13696.3
3032617900,0.634771,2.223,96.1711,0.00331725,-0.00572001,0.880529,1.05364,1.50458,-0.0633926,0.154395,-0.0716742,0.107216,1.7,0,0,12110,49.036,27.146,13311.3
3032718297,0.634771,2.223,96.1532,0.00573191,-0.00243995,0.880962,1.07229,1.51431,-0.0537277,0.202986,-0.065754,0.0971617,1.7,0,0,12110,49.036,27.146,13311.3
3032818681,0.634771,2.223,96.1345,0.0108746,0.0012802,0.881145,1.08556,1.51242,-0.0505333,0.100565,-0.0827301,0.170257,4.5,-0.4,0,12110,49.036,27.146,13311.3
3032919073,0.634771,2.223,96.1171,0.00911213,-0.0295903,0.879438,1.08696,1.50593,-0.0448795,-0.108352,0.0388936,0.47563,4.5,-0.4,0,12110,49.036,27.146,13311.3
3033019494,0.634771,2.223,96.1042,-0.0141817,-0.189841,0.882443,1.12337,1.53796,-0.0162264,0.875565,-0.0685116,0.182054,4.5,-0.4,0,12110,49.036,27.146,13311.3
3033119875,0.634771,2.223,96.1064,-0.0374304,-0.319841,0.8866,1.30528,1.69827,-0.0498126,2.48567,-0.327969,0.276002,4.5,-0.4,0,12110,49.036,27.146,13311.3
3033220289,0.634771,2.223,96.1076,-0.0475944,-0.391712,0.889333,1.59224,1.94306,-0.0664424,3.44586,-0.529404,1.57696,4.5,-0.4,0,12110,49.036,27.146,13311.3
3033320989,0.634771,2.223,96.0926,-0.0460265,-0.380494,0.887318,1.93307,2.23546,-0.047127,3.80849,-0.577045,2.01019,4.5,-0.4,0,12110,49.036,27.146,13311.3
3033422374,0.634771,2.223,96.0738,-0.0353021,-0.330849,0.883473,2.2432,2.50235,-0.0271803,3.58218,-0.534303,1.49276,4.5,-0.4,0,12110,49.036,27.146,13311.3
3033522704,0.634771,2.223,96.0612,-0.018603,-0.267218,0.880254,2.48707,2.72188,-0.00184443,2.90134,-0.348414,0.974065,4.5,-0.4,0,12110,49.036,27.146,13311.3
3033623059,0.634772,2.223,96.0507,-0.00329763,-0.210183,0.879541,2.67208,2.89837,0.00753511,2.21508,-0.178825,0.78779,4.5,-0.4,0,12107,48.962,27.087,13262.3
3033723425,0.634772,2.223,96.0528,0.00436861,-0.164454,0.879592,2.79695,3.02864,0.0101588,1.6074,-0.0305521,0.176288,4.5,-0.4,0,12107,48.962,27.087,13262.3
3033824905,0.634772,2.223,96.0623,0.00796965,-0.12647,0.879693,2.89988,3.13142,0.0159863,1.24647,-0.0635987,0.230313,4.5,-0.4,0,12107,48.962,27.087,13262.3
3033927015,0.634772,2.223,96.0688,0.00624877,-0.0947717,0.879893,2.97063,3.2089,0.0182092,0.852323,-0.0390804,0.267553,4.5,-0.4,0,12107,48.962,27.087,13262.3
3034027384,0.634772,2.223,96.0784,0.00772766,-0.0714375,0.879844,3.01862,3.25729,0.0246606,0.521065,-0.00456222,-0.0185563,4.5,-0.4,0,12107,48.962,27.087,13262.3
3034127746,0.634772,2.223,96.0912,0.00834474,-0.0568669,0.879076,3.0525,3.28484,0.0160134,0.280478,-0.0202857,-0.0367527,4.5,-0.4,0,12107,48.962,27.087,13262.3
3034228128,0.634772,2.223,96.1102,0.00865586,-0.0498814,0.879147,3.08018,3.31587,0.0132618,0.363651,0.0169087,-0.0632135,4.5,-0.4,0,12107,48.962,27.087,13262.3
3034328485,0.634772,2.223,96.1218,0.00709173,-0.0455635,0.879333,3.09373,3.33928,0.000699987,0.25184,0.0416174,-0.298148,4.5,-0.4,0,12107,48.962,27.087,13262.3
3034428846,0.634772,2.223,96.1337,0.00764214,-0.0435537,0.879815,3.106,3.35492,-0.00741577,0.151213,-0.027568,-0.0526719,4.5,-0.4,0,12107,48.962,27.087,13262.3
3034529197,0.634772,2.223,96.1375,0.00699811,-0.0426256,0.879633,3.117,3.36719,-0.00874984,0.187233,-0.0384566,0.0274317,4.5,-0.4,0,12107,48.962,27.087,13262.3
3034629552,0.634772,2.223,96.1424,0.0052709,-0.0396186,0.879477,3.11947,3.3798,-0.0162759,0.152065,0.0301378,-0.0612078,4.5,-0.4,0,12107,49.044,25.958,12730.8
3034729901,0.634772,2.223,96.1391,0.00251354,-0.0408412,0.879792,3.1191,3.38223,-0.0267585,0.128619,0.0164743,-0.244258,4.5,-0.4,0,12107,49.044,25.958,12730.8
3034830317,0.634772,2.223,96.1354,0.000648902,-0.0420077,0.880219,3.11798,3.38249,-0.0413228,0.0675423,-0.0504691,-0.170003,-9.12642,1.17234,0,12107,49.044,25.958,12730.8
3034930678,0.634772,2.223,96.1296,0.00323773,-0.0227517,0.880608,3.12091,3.38658,-0.0292852,0.0821896,-0.01727,0.415479,-9.27961,1.18163,0,12107,49.044,25.958,12730.8
3035031074,0.634772,2.223,96.1194,0.0237267,0.146627,0.882923,3.10821,3.38778,0.0316404,-0.390986,0.132927,0.0334492,-9.47366,1.20316,0,12107,49.044,25.958,12730.8
3035131379,0.634772,2.223,96.1094,0.042998,0.288363,0.887027,2.93243,3.22708,-0.0158448,-2.39665,0.359617,0.137581,-9.31625,1.21036,0,12107,49.044,25.958,12730.8
3035231734,0.634772,2.223,96.1013,0.0569221,0.377868,0.890924,2.66924,2.98079,-0.058567,-3.4259,0.409806,1.08734,-9.14184,1.21216,0,12107,49.044,25.958,12730.8
3035332104,0.634772,2.223,96.1022,0.0569539,0.416152,0.892534,2.34337,2.67663,-0.0706152,-3.92783,0.473617,1.73709,-9.10142,1.21058,0,12107,49.044,25.958,12730.8
3035432453,0.634772,2.223,96.0924,0.0448474,0.417323,0.891829,1.99407,2.33824,-0.0649688,-4.20079,0.422558,1.96691,-9.17867,1.2032,0,12107,49.044,25.958,12730.8
3035532797,0.634772,2.223,96.0789,0.0298751,0.395515,0.88974,1.67627,2.00202,-0.0640846,-3.94613,0.188089,1.91356,-9.34293,1.19469,0,12107,49.044,25.958,12730.8
3035633143,0.634772,2.223,96.0801,0.0226042,0.364777,0.887984,1.38764,1.67911,-0.0406229,-3.77621,0.128097,1.69696,-9.50696,1.19065,0,12065,49.014,27.213,13338.2
3035733439,0.634772,2.223,96.0914,0.0191229,0.325235,0.885979,1.12717,1.38076,-0.0265303,-3.42427,0.0398874,1.40756,-9.68931,1.18681,0,12065,49.014,27.213,13338.2
3035833806,0.634772,2.223,96.1008,0.0182894,0.280329,0.88509,0.903795,1.12256,-0.00196389,-3.01388,0.0569563,0.869564,-9.84016,1.19246,0,12065,49.014,27.213,13338.2
3035934095,0.634772,2.223,96.1,0.0180372,0.243436,0.884638,0.716103,0.911797,-0.00651677,-2.52276,0.11005,0.386857,-9.95227,1.19785,0,12065,49.014,27.213,13338.2
3036035278,0.634772,2.223,96.0974,0.0257333,0.284078,0.885734,0.523418,0.696222,0.0169942,-2.3569,0.0873843,0.417791,-9.8418,1.19517,0,12065,49.014,27.213,13338.2
3036137094,0.634772,2.223,96.0925,0.0369373,0.327284,0.886624,0.321634,0.476552,-0.0248272,-2.66419,0.170509,0.766314,-9.70128,1.18475,0,12065,49.014,27.213,13338.2
3036239081,0.634772,2.223,96.0775,0.0454245,0.357411,0.887921,0.0794066,0.226992,-0.0277084,-3.14474,0.238938,1.15835,-9.57923,1.18306,0,12065,49.014,27.213,13338.2
3036339509,0.634772,2.223,96.0711,0.0493496,0.369648,0.888749,-0.189871,-0.0356306,-0.0349971,-3.29757,0.390016,1.32796,-9.51454,1.18266,0,12065,49.014,27.213,13338.2
3036444786,0.634772,2.223,96.0605,0.0508487,0.374398,0.889104,-0.456484,-0.307215,-0.0246174,-3.39935,0.31257,1.3312,-9.46476,1.18037,0,12065,49.014,27.213,13338.2
3036546598,0.634772,2.223,96.0501,0.0504167,0.376838,0.889436,-0.72054,-0.577695,-0.0269923,-3.2848,0.29064,1.62913,-9.4169,1.17723,0,12065,49.014,27.213,13338.2
3036646956,0.634772,2.223,96.0455,0.0501273,0.37886,0.89003,-0.98047,-0.835196,-0.0222849,-3.22935,0.390726,1.55166,-9.35902,1.17578,0,12065,49.115,24.363,11965.9
3036747340,0.634772,2.223,96.0495,0.0512636,0.378186,0.890332,-1.22773,-1.09587,-0.0155493,-3.23228,0.265236,1.38384,-9.30203,1.17108,0,12065,49.115,24.363,11965.9
3036847748,0.634772,2.223,96.0537,0.0526899,0.374917,0.889763,-1.47632,-1.34624,-0.005915,-3.15544,0.318182,1.34263,-9.24445,1.15823,0,12065,49.115,24.363,11965.9
3036948111,0.634772,2.223,96.0564,0.0539459,0.370232,0.888666,-1.72138,-1.58895,-0.00429682,-3.08283,0.321966,1.35864,-9.18166,1.13974,0,12065,49.115,24.363,11965.9
3037048489,0.634772,2.223,96.0636,0.0585723,0.3695,0.888597,-1.95728,-1.823,0.0132515,-3.03431,0.343274,1.1878,-9.09236,1.12712,0,12065,49.115,24.363,11965.9
3037148857,0.634772,2.223,96.0824,0.060555,0.367467,0.889177,-2.18692,-2.0364,-0.000774259,-2.97946,0.416157,0.968747,-8.99656,1.11969,0,12065,49.115,24.363,11965.9
3037249232,0.634772,2.223,96.0964,0.0620661,0.362897,0.88895,-2.41515,-2.24035,0.0032431,-2.84632,0.431303,0.983541,-8.90134,1.10321,0,12065,49.115,24.363,11965.9
3037349590,0.634772,2.223,96.1071,0.062345,0.35862,0.888979,-2.6438,-2.43465,0.00189045,-2.76092,0.514182,0.948856,-8.79448,1.08753,0,12065,49.115,24.363,11965.9
3037449923,0.634772,2.223,96.122,0.0595289,0.355891,0.88818,-2.86856,-2.61623,0.0039529,-2.66336,0.530848,0.987115,-8.68066,1.06206,0,12065,49.115,24.363,11965.9
3037550288,0.634772,2.223,96.1283,0.0573409,0.354568,0.888234,-3.07474,-2.79505,-0.00126095,-2.62048,0.436468,0.737235,-8.55145,1.04205,0,12065,49.115,24.363,11965.9
3037650586,0.634772,2.223,96.1458,0.0561803,0.352288,0.888032,-3.27028,-2.97225,-0.0110265,-2.52684,0.369213,0.856583,-8.41818,1.01719,0,12065,49.104,25.972,12753.3
3037750928,0.634772,2.223,96.1606,0.0542833,0.350069,0.887497,-3.47188,-3.13689,-0.00215803,-2.4661,0.528956,0.848993,-8.27212,0.988498,0,12065,49.104,25.972,12753.3
3037852244,0.634772,2.223,96.1715,0.049245,0.349803,0.887379,-3.69823,-3.32727,-0.0125854,-2.32753,0.412797,0.713572,-8.11503,0.961074,0,12065,49.104,25.972,12753.3
3037954216,0.634772,2.223,96.1792,0.0434456,0.349483,0.887585,-3.87058,-3.49147,-0.0044836,-2.28972,0.315246,0.93366,-7.94789,0.935504,0,12065,49.104,25.972,12753.3
3038054577,0.634772,2.223,96.1844,0.0399424,0.354931,0.887556,-4.04393,-3.66279,-0.00504501,-2.40555,0.277442,0.623202,-7.7589,0.905275,0,12065,49.104,25.972,12753.3
3038154953,0.634772,2.223,96.1903,0.0438532,0.360497,0.8876,-4.21454,-3.84427,-0.0203322,-2.48522,0.167672,0.756601,-7.55945,0.874833,0,12065,49.104,25.972,12753.3
3038255320,0.634772,2.223,96.1946,0.0417283,0.36334,0.886872,-4.38594,-4.02139,-0.0423261,-2.43304,0.17249,0.616958,-7.36719,0.840509,0,12065,49.104,25.972,12753.3
3038355665,0.634772,2.223,96.1976,0.0436482,0.365904,0.885993,-4.55036,-4.20815,-0.0558272,-2.42946,0.147973,0.710553,-7.16571,0.804702,0,12065,49.104,25.972,12753.3
3038456042,0.634772,2.223,96.2014,0.0403449,0.363065,0.885866,-4.71598,-4.38071,-0.0713891,-2.34716,0.195086,0.660747,-6.97054,0.776542,0,12065,49.104,25.972,12753.3
3038556386,0.634771,2.223,96.2047,0.034095,0.334652,0.884735,-4.87697,-4.56799,-0.0595115,-2.35609,0.0315184,0.765263,-6.82724,0.747019,0,12065,49.104,25.972,12753.3
3038656755,0.634771,2.223,96.217,0.0260361,0.278624,0.883238,-5.0068,-4.72606,-0.0250664,-1.82993,0.00728821,0.749912,-6.72742,0.722062,0,12065,48.891,28.727,14044.9
3038757135,0.634771,2.223,96.2311,0.0182032,0.217858,0.882595,-5.08243,-4.83366,-0.00507525,-1.25772,-0.0958345,0.37041,-6.59743,0.699802,0,12065,48.891,28.727,14044.9
3038857495,0.634771,2.223,96.2413,0.015247,0.166959,0.88292,-5.11036,-4.89959,-0.000419118,-0.7568,-0.163437,0.039702,-6.42358,0.683458,0,12065,48.891,28.727,14044.9
3038957878,0.634771,2.223,96.2458,0.0145224,0.113754,0.882162,-5.10625,-4.92353,-0.0113421,-0.2683,-0.112339,-0.400972,-6.22597,0.657036,0,12065,48.891,28.727,14044.9
3039058243,0.634771,2.223,96.2557,0.0120252,0.0690249,0.881601,-5.0602,-4.90492,-0.0140165,0.309109,-0.159538,-0.0345173,-6.0104,0.633587,0,12065,48.891,28.727,14044.9
3039158566,0.634771,2.223,96.2617,0.0113218,0.0225379,0.881415,-4.99819,-4.86157,-0.00360201,0.597899,-0.108179,0.120578,-5.78007,0.609536,0,12065,48.891,28.727,14044.9
3039258877,0.634771,2.223,96.2642,0.0115522,-0.0125448,0.881654,-4.90171,-4.76807,-0.00711054,1.16239,-0.0566948,-0.171508,-5.55096,0.592035,0,12065,48.891,28.727,14044.9
3039359249,0.634771,2.223,96.2607,0.0125152,-0.0413574,0.88134,-4.79358,-4.65659,-0.0234498,1.40052,-0.0604236,0.205399,-5.31657,0.568644,0,12065,48.891,28.727,14044.9
3039459592,0.634771,2.223,96.2498,0.0130164,-0.0598528,0.880476,-4.67613,-4.52912,-0.0571471,1.53173,-0.0994349,0.228387,-5.101,0.545082,0,12065,48.891,28.727,14044.9
3039559946,0.634771,2.223,96.2406,0.0124938,-0.0741133,0.879972,-4.55561,-4.40012,-0.0683974,1.56973,-0.0794305,0.348278,-4.88361,0.521108,0,12065,48.891,28.727,14044.9
3039660338,0.634771,2.223,96.2281,0.0089235,-0.087363,0.87955,-4.42249,-4.25812,-0.0826164,1.75344,-0.115954,0.034182,-4.68779,0.500565,0,12065,48.891,28.727,14044.9
3039760682,0.634771,2.223,96.2168,0.00538685,-0.100026,0.878781,-4.28548,-4.11148,-0.0877756,1.72329,-0.0951216,0.495675,-4.48868,0.476868,0,12065,48.869,28.507,13931.1
3039861079,0.634771,2.223,96.2035,0.00562784,-0.103553,0.878879,-4.13393,-3.96367,-0.0866716,1.87107,-0.183301,0.0870789,-4.3123,0.460118,0,12065,48.869,28.507,13931.1
3039961423,0.63477,2.223,96.1959,0.0034911,-0.107614,0.879384,-3.99673,-3.81162,-0.113475,1.78292,-0.0270784,0.408386,-4.13104,0.443748,0,12065,48.869,28.507,13931.1
3040061771,0.63477,2.223,96.1852,0.00215331,-0.101432,0.878831,-3.84178,-3.65235,-0.0988133,1.92933,-0.135747,0.57718,-3.97842,0.425354,0,12065,48.869,28.507,13931.1
3040162123,0.63477,2.223,96.1784,-0.00389308,-0.0957896,0.878682,-3.69765,-3.51097,-0.0936356,1.77554,-0.214476,0.269275,-3.82244,0.407758,0,12065,48.869,28.507,13931.1
3040262472,0.63477,2.223,96.1794,-0.00774963,-0.0902814,0.879038,-3.55472,-3.37701,-0.0888626,1.66595,-0.252923,0.282351,-3.68363,0.392868,0,12065,48.869,28.507,13931.1
3040362798,0.63477,2.223,96.1833,-0.00779644,-0.085497,0.878933,-3.41726,-3.24813,-0.080354,1.62508,-0.230536,0.198329,-3.53963,0.375984,0,12065,48.869,28.507,13931.1
3040463162,0.63477,2.223,96.1905,-0.0078706,-0.0753211,0.878908,-3.28233,-3.12115,-0.0900611,1.54899,-0.258827,0.0466943,-3.41026,0.359262,0,12065,48.869,28.507,13931.1
3040563516,0.63477,2.223,96.1981,-0.011263,-0.07235,0.879248,-3.16036,-3.00629,-0.0727579,1.45755,-0.185711,0.342689,-3.27565,0.344099,0,12065,48.869,28.507,13931.1
3040663885,0.63477,2.223,96.2085,-0.0113714,-0.06727,0.880256,-3.0296,-2.89464,-0.0613931,1.48393,-0.283461,0.285699,-3.15057,0.331096,0,12065,48.869,28.507,13931.1
3040764291,0.63477,2.223,96.2146,-0.00911715,-0.0640029,0.880321,-2.91374,-2.80038,-0.062701,1.32831,-0.218169,-0.0576318,-3.02462,0.316329,0,12063,49.028,25.807,12652.7
3040864656,0.63477,2.223,96.221,-0.0064285,-0.0597567,0.879597,-2.79687,-2.70619,-0.05897,1.30906,-0.286495,0.184066,-2.90408,0.300095,0,12063,49.028,25.807,12652.7
3040965036,0.63477,2.223,96.2226,-0.00502839,-0.0549185,0.879381,-2.69337,-2.61533,-0.0619415,1.27031,-0.244791,-0.103454,-2.78468,0.286617,0,12063,49.028,25.807,12652.7
3041065398,0.63477,2.223,96.2136,-0.00491738,-0.0501346,0.87909,-2.59055,-2.53169,-0.0843276,1.15958,-0.179521,0.317308,-2.6682,0.273361,0,12063,49.028,25.807,12652.7
3041165863,0.63477,2.223,96.2065,-0.00695432,-0.0551508,0.87883,-2.50151,-2.45263,-0.0657103,1.16056,-0.196773,0.186046,-2.55345,0.260978,0,12063,49.028,25.807,12652.7
3041266219,0.63477,2.223,96.2011,-0.00353666,-0.0561847,0.878192,-2.4101,-2.3682,-0.0702137,1.16113,-0.119171,0.217619,-2.44023,0.247125,0,12063,49.028,25.807,12652.7
3041366519,0.63477,2.223,96.1944,-0.00273588,-0.0548414,0.878367,-2.32123,-2.27782,-0.0859675,1.27484,-0.132621,-0.118189,-2.33186,0.236174,0,12063,49.028,25.807,12652.7
3041466870,0.63477,2.223,96.1829,-0.003406,-0.0585737,0.878721,-2.23544,-2.2012,-0.0912333,1.11381,-0.204937,0.322393,-2.22544,0.225752,0,12063,49.028,25.807,12652.7
3041567223,0.63477,2.223,96.1711,-0.00407449,-0.0573228,0.878182,-2.14795,-2.11063,-0.0776988,1.24304,-0.0784856,0.491088,-2.12515,0.214559,0,12063,49.028,25.807,12652.7
3041667572,0.63477,2.223,96.1674,-0.00229953,-0.0601095,0.878491,-2.06149,-2.017,-0.0665423,1.31792,-0.0909822,0.1954,-2.0231,0.204611,0,12063,49.028,25.807,12652.7
3041767942,0.63477,2.223,96.1605,-0.00180934,-0.0570646,0.878747,-1.97011,-1.92684,-0.0796602,1.29212,-0.13154,0.0761042,-1.9281,0.195266,0,12063,49.261,22.519,11093.1
