timestamp,lat,log,alt,roll,pitch,yaw,vel_x,vel_y,vel_z,acc_x,acc_y,acc_z,act_vx,act_vy,act_yr,capacity,vol,cur,power
134492099,0.634769,2.223,93.2758,-0.0226778,0.019512,0.984889,-0.00858538,-0.014331,-0.0103136,-0.0285425,-0.0135146,0.0698205,-2.7,-0.9,0,12122,49.025,25.374,12439.6
134592529,0.634769,2.223,93.273,-0.0236717,0.0185471,0.984608,-0.0265221,-0.0155031,-0.0110104,-0.123572,0.125573,0.146922,-2.7,-0.9,0,12122,49.025,25.374,12439.6
134692915,0.634769,2.223,93.2715,-0.0279653,0.0229071,0.98361,-0.0368252,-0.0111105,-0.00768551,-0.0237727,0.0497395,0.143454,-2.7,-0.9,0,12122,49.025,25.374,12439.6
134793372,0.634769,2.223,93.2737,-0.0669473,0.139279,0.978939,-0.0422367,-0.0189582,0.0329555,-0.307139,-0.106035,0.117194,-2.7,-0.9,0,12122,49.025,25.374,12439.6
134893766,0.634769,2.223,93.2736,-0.111667,0.275869,0.968891,-0.0980225,-0.188307,-0.0209712,-1.95191,-0.520249,-0.102367,-2.7,-0.9,0,12122,49.025,25.374,12439.6
134994607,0.634769,2.223,93.2756,-0.14382,0.357518,0.958199,-0.182986,-0.488014,-0.0414343,-2.75876,-0.873603,1.43199,-2.7,-0.9,0,12122,49.025,25.374,12439.6
135095640,0.634769,2.223,93.2864,-0.160959,0.398385,0.951212,-0.290517,-0.866755,-0.0313043,-3.47404,-1.1397,1.4391,-2.7,-0.9,0,12122,49.025,25.374,12439.6
135195999,0.634769,2.223,93.3045,-0.155458,0.379799,0.953773,-0.412363,-1.27566,-0.0215413,-3.61773,-1.12981,1.75218,-2.7,-0.9,0,12122,49.025,25.374,12439.6
135296394,0.634769,2.223,93.312,-0.13946,0.327739,0.960973,-0.520392,-1.64788,0.00152825,-3.17307,-1.03434,1.57302,-2.7,-0.9,0,12122,49.025,25.374,12439.6
135396756,0.634769,2.223,93.303,-0.121376,0.272037,0.967665,-0.596305,-1.94238,0.00134564,-2.53716,-0.896089,0.898012,-2.7,-0.9,0,12122,49.025,25.374,12439.6
135497110,0.634769,2.223,93.2982,-0.104009,0.224625,0.972881,-0.654779,-2.17424,-0.0021679,-2.0941,-0.746989,0.482691,-2.7,-0.9,0,12122,49.025,25.061,12286.2
135597435,0.634769,2.223,93.297,-0.0905097,0.183978,0.976422,-0.703367,-2.35895,0.00405383,-1.61377,-0.594771,0.356266,-2.7,-0.9,0,12122,49.025,25.061,12286.2
135697749,0.634769,2.223,93.2942,-0.0785658,0.152033,0.978902,-0.736757,-2.49825,-0.00668796,-1.17382,-0.452133,0.305213,-2.7,-0.9,0,12122,49.025,25.061,12286.2
135798118,0.634769,2.223,93.2851,-0.0669538,0.127248,0.980462,-0.762879,-2.62165,-0.0128007,-1.04873,-0.448359,0.0520528,-2.7,-0.9,0,12122,49.025,25.061,12286.2
135898465,0.634769,2.223,93.283,-0.057556,0.104623,0.981684,-0.788186,-2.71386,-0.00822925,-0.75326,-0.26369,0.0269746,-2.7,-0.9,0,12122,49.025,25.061,12286.2
135998830,0.634769,2.223,93.2871,-0.0508688,0.0870521,0.982521,-0.802181,-2.77059,-0.0073481,-0.428015,-0.176378,0.131708,-2.7,-0.9,0,12122,49.025,25.061,12286.2
136099190,0.634769,2.223,93.2979,-0.0467812,0.0746203,0.983084,-0.81241,-2.81109,0.00218663,-0.292205,-0.0969589,0.124789,-2.7,-0.9,0,12122,49.025,25.061,12286.2
136199496,0.634769,2.223,93.3033,-0.0441671,0.0661125,0.98335,-0.82434,-2.83944,-0.00783566,-0.253647,-0.00877964,-0.0321392,-2.7,-0.9,0,12122,49.025,25.061,12286.2
136299859,0.634769,2.223,93.315,-0.041011,0.0617575,0.983576,-0.825158,-2.85367,-0.00402046,-0.122223,-0.0338103,0.111581,-2.7,-0.9,0,12122,49.025,25.061,12286.2
136400271,0.634769,2.223,93.3178,-0.0383726,0.0603292,0.983495,-0.823942,-2.85634,-0.0190538,-0.0129637,-0.0294889,-0.0739569,-2.7,-0.9,0,12122,49.025,25.061,12286.2
136500638,0.634769,2.223,93.3141,-0.0375424,0.0598434,0.983699,-0.821693,-2.86053,-0.0278434,-0.0718853,-0.0493467,0.129573,4.1,0,0,12122,49.025,25.061,12286.2
136601011,0.634769,2.223,93.3092,-0.0332225,0.044266,0.98508,-0.826015,-2.85959,-0.0272385,-0.0810694,0.0304813,0.0192098,4.1,0,0,12122,49.044,25.449,12481.2
136701379,0.634769,2.223,93.3122,0.00441176,-0.148819,0.983661,-0.828827,-2.85142,0.00657118,0.240291,0.121428,0.508472,4.1,0,0,12122,49.044,25.449,12481.2
136801740,0.634769,2.223,93.3207,0.0340775,-0.314678,0.980263,-0.717991,-2.58284,0.0127286,2.93123,0.579543,0.123408,4.1,0,0,12122,49.044,25.449,12481.2
136902111,0.634769,2.223,93.3236,0.0526826,-0.413739,0.976634,-0.56131,-2.19591,-0.0539788,3.92672,0.783342,1.24995,4.1,0,0,12122,49.044,25.449,12481.2
137002475,0.634769,2.223,93.3165,0.0643674,-0.460236,0.974693,-0.363116,-1.71843,-0.0991564,4.49541,0.85929,2.09618,4.1,0,0,12122,49.044,25.449,12481.2
137102758,0.634769,2.223,93.3015,0.0662862,-0.470703,0.975833,-0.144405,-1.18903,-0.109445,4.73617,0.908733,2.77648,4.1,0,0,12122,49.044,25.449,12481.2
137203097,0.634769,2.223,93.2773,0.0614094,-0.46689,0.977599,0.0798894,-0.634877,-0.082921,4.82537,0.955008,3.05277,4.1,0,0,12122,49.044,25.449,12481.2
137303451,0.634769,2.223,93.2633,0.0480183,-0.461147,0.979566,0.300763,-0.105312,-0.0678693,4.78742,0.862856,2.51773,4.1,0,0,12122,49.044,25.449,12481.2
137403804,0.634769,2.223,93.2583,0.0302084,-0.447695,0.981179,0.530737,0.401159,-0.0513687,4.59807,0.705132,2.62734,4.1,0,0,12122,49.044,25.449,12481.2
137504156,0.634769,2.223,93.2571,0.0120455,-0.432162,0.983387,0.767614,0.882331,-0.0287668,4.48522,0.502479,2.26531,4.1,0,0,12122,49.044,25.449,12481.2
137604409,0.634769,2.223,93.2601,-0.00259811,-0.419504,0.985128,0.997235,1.32792,-0.0217071,4.15086,0.435205,2.11917,4.1,0,0,12122,48.979,26.115,12790.9
137704706,0.634769,2.223,93.2629,-0.016818,-0.395935,0.986913,1.24007,1.75262,-0.0110926,4.08248,0.170021,1.89392,4.1,0,0,12122,48.979,26.115,12790.9
137805052,0.634769,2.223,93.2654,-0.0263772,-0.338778,0.987461,1.46786,2.12667,-0.00255167,3.60321,0.090446,1.62705,4.1,0,0,12122,48.979,26.115,12790.9
137905398,0.634769,2.223,93.2709,-0.0320563,-0.278556,0.986833,1.65596,2.43092,0.0194653,3.06492,0.0138299,0.993776,4.1,0,0,12122,48.979,26.115,12790.9
138005790,0.634769,2.223,93.2758,-0.0361847,-0.220474,0.986085,1.8139,2.66887,0.0167709,2.43341,-0.0857415,0.539311,4.1,0,0,12122,48.979,26.115,12790.9
138106124,0.634769,2.223,93.2893,-0.038247,-0.172028,0.985217,1.93225,2.84854,0.0193556,1.85129,-0.106148,0.207076,4.1,0,0,12122,48.979,26.115,12790.9
138206484,0.634769,2.223,93.3103,-0.0381914,-0.133324,0.984516,2.02232,2.97722,0.0125852,1.32812,-0.105678,0.256569,4.1,0,0,12122,48.979,26.115,12790.9
138306839,0.634769,2.223,93.3306,-0.0373165,-0.105182,0.984534,2.09584,3.06302,0.0178181,0.920564,-0.197522,0.0172092,4.1,0,0,12122,48.979,26.115,12790.9
138407208,0.634769,2.223,93.3381,-0.0338653,-0.0842839,0.984051,2.14783,3.12667,0.00232604,0.677782,-0.0843417,-0.0399366,4.1,0,0,12122,48.979,26.115,12790.9
138507633,0.634769,2.223,93.3474,-0.0306787,-0.071361,0.984189,2.18362,3.17295,-0.00237123,0.459655,-0.128031,-0.277818,-1.7,-0.6,0,12122,48.979,26.115,12790.9
138607971,0.634769,2.223,93.3601,-0.0285849,-0.0493805,0.983162,2.19953,3.2037,0.00463291,0.414929,0.0129782,0.352459,-1.7,-0.6,0,12122,49.036,25.851,12676.3
138708367,0.634769,2.223,93.372,-0.0419808,0.152101,0.981505,2.1919,3.18793,0.0671488,-0.618543,-0.0932118,-0.0797717,-1.7,-0.6,0,12122,49.036,25.851,12676.3
138808711,0.634769,2.223,93.3765,-0.0591045,0.330388,0.975593,2.04772,2.93355,-0.00694557,-2.98994,-0.283396,0.190611,-1.7,-0.6,0,12122,49.036,25.851,12676.3
138909065,0.634769,2.223,93.3845,-0.0768586,0.446494,0.968749,1.84028,2.55035,-0.0750027,-4.0688,-0.429129,1.53242,-1.7,-0.6,0,12122,49.036,25.851,12676.3
139009438,0.634769,2.223,93.3967,-0.0837408,0.495824,0.965339,1.58281,2.06827,-0.0851778,-4.66676,-0.463626,2.39096,-1.7,-0.6,0,12122,49.036,25.851,12676.3
139109800,0.634769,2.223,93.4045,-0.0829449,0.507086,0.963681,1.30513,1.56568,-0.0991146,-4.93748,-0.400167,2.40908,-1.7,-0.6,0,12122,49.036,25.851,12676.3
139210155,0.634769,2.223,93.4131,-0.0794439,0.501079,0.963166,1.01966,1.06083,-0.0895049,-4.8386,-0.340607,2.79642,-1.7,-0.6,0,12122,49.036,25.851,12676.3
139310500,0.634769,2.223,93.4143,-0.0788319,0.486482,0.963341,0.741228,0.560898,-0.075314,-4.7633,-0.407343,2.45738,-1.7,-0.6,0,12122,49.036,25.851,12676.3
139410821,0.634769,2.223,93.4062,-0.0822014,0.464862,0.963364,0.471846,0.0926478,-0.0776369,-4.46724,-0.310444,2.34813,-1.7,-0.6,0,12122,49.036,25.851,12676.3
139511180,0.634769,2.223,93.3953,-0.0791827,0.400506,0.9665,0.226015,-0.370371,-0.0731298,-4.1862,-0.440859,2.23093,-1.7,-0.6,0,12122,49.036,25.851,12676.3
139611585,0.634769,2.223,93.383,-0.0710821,0.322045,0.971308,0.0323464,-0.740756,-0.0563499,-3.33536,-0.373798,1.45986,-1.7,-0.6,0,12122,48.891,29.535,14440
139712038,0.634769,2.223,93.3697,-0.0636588,0.245494,0.976298,-0.108607,-1.01978,-0.0447337,-2.571,-0.3157,0.78528,-1.7,-0.6,0,12122,48.891,29.535,14440
139812386,0.634769,2.223,93.3544,-0.0587822,0.186758,0.97951,-0.219125,-1.23052,-0.0506396,-1.91342,-0.23354,0.425783,-1.7,-0.6,0,12122,48.891,29.535,14440
139912801,0.634769,2.223,93.3456,-0.056409,0.142656,0.98143,-0.293254,-1.39115,-0.0495571,-1.32976,-0.266425,0.469342,-1.7,-0.6,0,12122,48.891,29.535,14440
140013260,0.634769,2.223,93.3419,-0.052091,0.110586,0.982888,-0.351256,-1.50386,-0.0405715,-0.986361,-0.140917,0.0878352,-1.7,-0.6,0,12122,48.891,29.535,14440
140113708,0.634769,2.223,93.3413,-0.0486906,0.0878358,0.983351,-0.387622,-1.59123,-0.0323509,-0.646498,-0.154229,0.339387,-1.7,-0.6,0,12122,48.891,29.535,14440
140214108,0.634769,2.223,93.3312,-0.0439873,0.0737997,0.983697,-0.410993,-1.6511,-0.0376318,-0.4669,-0.0523383,-0.0727887,-1.7,-0.6,0,12122,48.891,29.535,14440
140315178,0.634769,2.223,93.3251,-0.0407999,0.0637943,0.984242,-0.42722,-1.69195,-0.0426999,-0.32591,-0.0891628,0.137646,-1.7,-0.6,0,12122,48.891,29.535,14440
140415552,0.634769,2.223,93.3205,-0.0392026,0.0577842,0.984282,-0.442063,-1.717,-0.0394794,-0.271499,-0.0110392,-0.029304,-1.7,-0.6,0,12122,48.891,29.535,14440
140515957,0.634769,2.223,93.3122,-0.0386948,0.0552454,0.984239,-0.446748,-1.7338,-0.0349734,-0.221008,-0.0430555,0.109439,0.7,4.9,0,12122,48.891,29.535,14440
140616352,0.634769,2.223,93.301,-0.0083243,0.0359527,0.985411,-0.449143,-1.74522,-0.0316604,-0.212204,-0.0627938,0.259633,0.7,4.9,0,12122,49.022,25.635,12566.8
140716708,0.634769,2.223,93.2874,0.163255,-0.0613845,0.981584,-0.464436,-1.70843,0.00372086,0.301862,0.613889,0.30224,0.7,4.9,0,12122,49.022,25.635,12566.8
140817068,0.634769,2.223,93.2894,0.303258,-0.12837,0.965058,-0.596231,-1.45016,-0.0208525,1.30551,2.66967,0.37318,0.7,4.9,0,12122,49.022,25.635,12566.8
140917435,0.634769,2.223,93.295,0.387924,-0.163077,0.950268,-0.788681,-1.07831,-0.0641286,1.76874,3.50786,1.43546,0.7,4.9,0,12122,49.022,25.635,12566.8
141017785,0.634769,2.223,93.3003,0.426499,-0.172927,0.943562,-1.0314,-0.63825,-0.0775736,1.916,4.0034,2.10144,0.7,4.9,0,12122,49.022,25.635,12566.8
141118151,0.634769,2.223,93.3034,0.431912,-0.171333,0.941957,-1.29311,-0.172931,-0.066092,1.99858,4.12149,2.47566,0.7,4.9,0,12122,49.022,25.635,12566.8
141218499,0.634769,2.223,93.2985,0.42366,-0.161451,0.944375,-1.55566,0.293055,-0.0477952,1.97474,4.1511,2.31136,0.7,4.9,0,12122,49.022,25.635,12566.8
141318855,0.634769,2.223,93.2982,0.411989,-0.150011,0.948185,-1.81368,0.744771,-0.0298344,1.83991,3.99897,2.2902,0.7,4.9,0,12122,49.022,25.635,12566.8
141419226,0.634769,2.223,93.3006,0.398912,-0.135577,0.952589,-2.06346,1.16786,-0.0221671,1.72897,3.89818,1.84412,0.7,4.9,0,12122,49.022,25.635,12566.8
141519541,0.634769,2.223,93.3009,0.388383,-0.120874,0.957027,-2.31766,1.56309,-0.0188295,1.4513,3.74764,1.74588,0.7,4.9,0,12122,49.022,25.635,12566.8
141619910,0.634769,2.223,93.3001,0.362205,-0.101096,0.963089,-2.56703,1.93993,-0.0230077,1.38149,3.61329,1.74046,0.7,4.9,0,12122,48.879,27.648,13514.1
141720323,0.634769,2.223,93.2965,0.311384,-0.0754117,0.970339,-2.80279,2.27608,-0.00574423,1.11126,3.2505,1.3421,0.7,4.9,0,12122,48.879,27.648,13514.1
141820667,0.634769,2.223,93.2954,0.26003,-0.0526745,0.976417,-3.0063,2.53881,-8.50894e-05,0.766545,2.73447,0.806169,0.7,4.9,0,12122,48.879,27.648,13514.1
141921024,0.634769,2.223,93.298,0.212647,-0.0343355,0.980612,-3.16308,2.73999,0.00809376,0.543377,2.06984,0.520289,0.7,4.9,0,12122,48.879,27.648,13514.1
142022694,0.634769,2.223,93.3028,0.173897,-0.021064,0.982851,-3.29324,2.89312,0.00184873,0.399129,1.67666,0.277316,0.7,4.9,0,12122,48.879,27.648,13514.1
142126813,0.634769,2.223,93.3291,0.143967,-0.0112788,0.984386,-3.39911,3.00682,-0.000633577,0.191348,1.3408,0.157413,0.7,4.9,0,12122,48.879,27.648,13514.1
142227142,0.634769,2.223,93.3383,0.118851,-0.0050889,0.985028,-3.47521,3.09665,0.00236348,0.240253,0.963132,-0.0307351,0.7,4.9,0,12122,48.879,27.648,13514.1
142327551,0.634768,2.223,93.3337,0.100183,0.000194896,0.985489,-3.53483,3.16836,-0.0125804,0.167479,0.804955,-0.116899,0.7,4.9,0,12122,48.879,27.648,13514.1
142427910,0.634768,2.223,93.3367,0.0834624,0.00377433,0.985683,-3.58563,3.22761,-0.02244,0.171495,0.611832,0.00116397,0.7,4.9,0,12122,48.879,27.648,13514.1
142528330,0.634768,2.223,93.3441,0.0726461,0.00743199,0.985753,-3.62531,3.26737,-0.0189148,0.0596402,0.547868,-0.0412793,4.3,-4.9,0,12122,48.879,27.648,13514.1
142628707,0.634768,2.223,93.3438,0.0508353,0.0060194,0.986984,-3.65117,3.29277,-0.0217571,0.072791,0.343437,-0.201612,4.3,-4.9,0,12122,48.879,27.648,13514.1
142729021,0.634768,2.223,93.3445,-0.132586,-0.0479769,0.990017,-3.66025,3.30414,0.0124863,0.0735069,-0.0966069,0.443432,4.3,-4.9,0,12122,48.983,25.786,12630.8
142829410,0.634768,2.223,93.3519,-0.308781,-0.101502,1.00168,-3.42383,3.24494,0.0117525,0.925069,-2.60104,-0.142448,4.3,-4.9,0,12122,48.983,25.786,12630.8
142929752,0.634768,2.223,93.3512,-0.415331,-0.135327,1.01247,-2.94904,3.11677,-0.0610781,1.34247,-3.75985,1.48839,4.3,-4.9,0,12122,48.983,25.786,12630.8
143030066,0.634768,2.223,93.3441,-0.465761,-0.14875,1.01678,-2.4449,2.97335,-0.0955662,1.46319,-4.35976,2.25052,4.3,-4.9,0,12122,48.983,25.786,12630.8
143130409,0.634768,2.223,93.3336,-0.48113,-0.146861,1.01439,-1.89781,2.81052,-0.0997579,1.45787,-4.60159,2.79264,4.3,-4.9,0,12122,48.983,25.786,12630.8
143230757,0.634768,2.223,93.3156,-0.476233,-0.140073,1.01025,-1.35187,2.63301,-0.0961668,1.36359,-4.62332,2.69344,4.3,-4.9,0,12122,48.983,25.786,12630.8
143331054,0.634768,2.223,93.2964,-0.457942,-0.131903,1.00494,-0.810802,2.45484,-0.0761099,1.29831,-4.51615,2.86808,4.3,-4.9,0,12122,48.983,25.786,12630.8
143431421,0.634768,2.223,93.2845,-0.436608,-0.127071,1.00193,-0.305016,2.27609,-0.0527305,1.12895,-4.28772,2.47671,4.3,-4.9,0,12122,48.983,25.786,12630.8
143531753,0.634768,2.223,93.2778,-0.416278,-0.127275,1.0013,0.173658,2.12293,-0.0416339,1.18516,-4.01979,2.14686,4.3,-4.9,0,12122,48.983,25.786,12630.8
143632115,0.634768,2.223,93.2731,-0.395748,-0.130985,1.00252,0.630502,1.98716,-0.0341681,1.24717,-3.82722,1.82829,4.3,-4.9,0,12122,48.983,25.786,12630.8
143732475,0.634768,2.223,93.2714,-0.382642,-0.136121,1.0041,1.06579,1.86787,-0.0215265,1.22939,-3.48369,1.92848,4.3,-4.9,0,12122,48.848,28.416,13880.6
143832819,0.634768,2.223,93.2671,-0.372562,-0.141743,1.00574,1.47698,1.76244,-0.0257539,1.2555,-3.37395,1.56331,4.3,-4.9,0,12122,48.848,28.416,13880.6
143933162,0.634768,2.223,93.2604,-0.366524,-0.146914,1.00717,1.87711,1.67481,-0.0254411,1.29693,-3.1976,1.62691,4.3,-4.9,0,12122,48.848,28.416,13880.6
144033516,0.634768,2.223,93.2631,-0.359907,-0.149526,1.00816,2.27465,1.5965,-0.0177466,1.37068,-3.15898,1.51488,4.3,-4.9,0,12122,48.848,28.416,13880.6
144133885,0.634768,2.223,93.2704,-0.354413,-0.151038,1.00875,2.65482,1.53205,-0.0142769,1.37958,-3.02503,1.41779,4.3,-4.9,0,12122,48.848,28.416,13880.6
144234227,0.634768,2.223,93.2763,-0.350224,-0.151399,1.00906,3.026,1.476,-0.0065062,1.34791,-2.92562,1.3749,4.3,-4.9,0,12122,48.848,28.416,13880.6
144334567,0.634768,2.223,93.2819,-0.347592,-0.151522,1.00996,3.38572,1.41687,-0.00779291,1.26971,-2.95916,1.29774,4.3,-4.9,0,12122,48.848,28.416,13880.6
144434918,0.634769,2.223,93.2887,-0.344419,-0.151723,1.01004,3.72978,1.36932,-0.00775609,1.34786,-2.79075,1.07752,4.3,-4.9,0,12122,48.848,28.416,13880.6
144535281,0.634769,2.223,93.2965,-0.34243,-0.152462,1.01014,4.06103,1.32308,-0.00929708,1.24917,-2.77101,1.08534,-4.2,-1.6,0,12122,48.848,28.416,13880.6
144635595,0.634769,2.223,93.3024,-0.324603,-0.124749,1.00659,4.38651,1.28102,-0.0231919,1.33948,-2.73044,1.05173,-4.2,-1.6,0,12122,48.848,28.416,13880.6
144735970,0.634769,2.223,93.3136,-0.179524,0.0943916,0.986117,4.68893,1.22059,0.065873,0.688992,-2.31604,1.41368,-4.2,-1.6,0,12122,48.955,26.02,12738.1
144836452,0.634769,2.223,93.3322,-0.00140822,0.295873,0.988397,4.61509,1.00524,0.108003,-2.47439,-0.312029,0.294398,-4.2,-1.6,0,12122,48.955,26.02,12738.1
144936880,0.634769,2.223,93.3442,0.10061,0.399216,0.999968,4.31763,0.775535,0.0369333,-3.64359,1.18998,0.879555,-4.2,-1.6,0,12122,48.955,26.02,12738.1
145037280,0.634769,2.223,93.3568,0.144168,0.442137,1.00612,3.9208,0.503107,0.00295679,-4.20562,1.66518,1.89344,-4.2,-1.6,0,12122,48.955,26.02,12738.1
145137631,0.634769,2.223,93.3756,0.160389,0.460951,1.00641,3.47601,0.225502,-0.0348214,-4.45516,1.87121,2.06637,-4.2,-1.6,0,12122,48.955,26.02,12738.1
145238916,0.634769,2.223,93.3909,0.161887,0.469079,1.00386,3.0097,-0.0552697,-0.0627748,-4.45213,1.95557,2.24515,-4.2,-1.6,0,12122,48.955,26.02,12738.1
145343453,0.634769,2.223,93.391,0.148321,0.465117,0.998419,2.52911,-0.337657,-0.0802463,-4.42962,1.9841,2.25911,-4.2,-1.6,0,12122,48.955,26.02,12738.1
145443809,0.634769,2.223,93.3917,0.129002,0.451931,0.99251,2.06664,-0.621926,-0.101753,-4.46958,1.82179,2.05797,-4.2,-1.6,0,12122,48.955,26.02,12738.1
145544216,0.634769,2.223,93.3992,0.103669,0.434751,0.987393,1.61897,-0.897322,-0.0854224,-4.05227,1.72619,2.32757,-4.2,-1.6,0,12122,48.955,26.02,12738.1
145644561,0.634769,2.223,93.409,0.0719843,0.417536,0.982845,1.20309,-1.17923,-0.0602269,-4.00735,1.4478,1.83297,-4.2,-1.6,0,12122,48.955,26.02,12738.1
145744899,0.634769,2.223,93.4144,0.0389222,0.403677,0.979626,0.844386,-1.45456,-0.044395,-3.69523,1.04598,1.69408,-4.2,-1.6,0,12122,48.955,26.02,12738.1
145845185,0.634769,2.223,93.4219,0.00683311,0.393696,0.977258,0.530144,-1.72248,-0.0562042,-3.50103,0.832868,1.32493,-4.2,-1.6,0,12122,48.955,26.02,12738.1
145945554,0.634769,2.223,93.4354,-0.0212639,0.386133,0.975023,0.260332,-2.00417,-0.0518419,-3.34258,0.39839,1.33689,-4.2,-1.6,0,12122,48.955,26.02,12738.1
146045923,0.634769,2.223,93.4447,-0.0435682,0.380922,0.973216,0.0251253,-2.29345,-0.0496091,-3.26866,0.195654,1.19614,-4.2,-1.6,0,12122,48.955,26.02,12738.1
146146194,0.634769,2.223,93.4371,-0.0636793,0.376495,0.971027,-0.192686,-2.58583,-0.0649712,-3.25985,0.0923347,1.23191,-4.2,-1.6,0,12122,48.955,26.02,12738.1
146246560,0.634769,2.223,93.4334,-0.0763349,0.359093,0.970272,-0.428802,-2.95044,-0.0722344,-3.19929,-0.102115,1.19736,-4.2,-1.6,0,12122,48.955,26.02,12738.1
146347668,0.634769,2.223,93.4395,-0.0820654,0.319587,0.971683,-0.585752,-3.22253,-0.0582735,-2.72102,-0.220266,1.01583,-4.2,-1.6,0,12122,48.955,26.02,12738.1
146451087,0.634769,2.223,93.4378,-0.0850136,0.272522,0.974207,-0.700675,-3.45241,-0.0650303,-2.31881,-0.338523,0.578607,-4.2,-1.6,0,12122,48.955,26.02,12738.1
146551481,0.634769,2.223,93.4287,-0.0838427,0.234657,0.976623,-0.791409,-3.64251,-0.0646922,-1.82056,-0.27597,0.611056,-1.1,3.2,0,12122,48.955,26.02,12738.1
146651796,0.634769,2.223,93.4221,-0.0614497,0.178681,0.984647,-0.848934,-3.80641,-0.0718379,-1.56326,-0.359564,0.548119,-1.1,3.2,0,12122,48.955,26.02,12738.1
146752110,0.634769,2.223,93.4279,0.11434,-0.00750999,0.994959,-0.900802,-3.89605,0.0122624,-0.579176,0.192336,0.706155,-1.1,3.2,0,12122,48.73,29.678,14462.1
146852517,0.634769,2.223,93.4402,0.277835,-0.140302,0.969795,-1.01498,-3.64575,0.0131199,1.57266,2.62375,-0.0203975,-1.1,3.2,0,12122,48.73,29.678,14462.1
146952851,0.634769,2.223,93.4378,0.367772,-0.205448,0.944194,-1.1659,-3.26065,-0.076258,2.35263,3.47385,1.07864,-1.1,3.2,0,12122,48.73,29.678,14462.1
147053153,0.634769,2.223,93.4233,0.411385,-0.234256,0.927675,-1.35335,-2.77146,-0.11315,2.68129,3.97995,2.15048,-1.1,3.2,0,12122,48.73,29.678,14462.1
147153505,0.634769,2.223,93.4015,0.427713,-0.241805,0.920387,-1.54611,-2.22983,-0.146059,2.91735,4.15793,2.67496,-1.1,3.2,0,12122,48.73,29.678,14462.1
147253836,0.634769,2.223,93.3769,0.428227,-0.230618,0.919947,-1.73936,-1.67597,-0.154638,2.91063,4.18019,2.6309,-1.1,3.2,0,12122,48.73,29.678,14462.1
147354186,0.634769,2.223,93.348,0.41906,-0.200207,0.926297,-1.94786,-1.13544,-0.152773,2.67741,4.09637,2.78576,-1.1,3.2,0,12122,48.73,29.678,14462.1
147454491,0.634769,2.223,93.3224,0.380983,-0.148506,0.940833,-2.16158,-0.617392,-0.128597,2.48919,4.05264,2.57433,-1.1,3.2,0,12122,48.73,29.678,14462.1
147554850,0.634769,2.223,93.3142,0.311666,-0.0908001,0.957193,-2.36987,-0.192648,-0.0954775,1.83623,3.54645,1.90229,-1.1,3.2,0,12122,48.73,29.678,14462.1
147655165,0.634769,2.223,93.323,0.245729,-0.0400409,0.971062,-2.55036,0.122382,-0.0484556,1.20065,2.7827,1.26992,-1.1,3.2,0,12122,48.73,29.678,14462.1
147755477,0.634769,2.223,93.3325,0.193286,0.00179771,0.98105,-2.69939,0.345968,-0.023859,0.695518,2.17136,0.635159,-1.1,3.2,0,12122,48.73,29.678,14462.1
147855822,0.634769,2.223,93.3527,0.1535,0.0292434,0.987034,-2.82744,0.49402,-0.0141717,0.260617,1.64366,0.288415,-1.1,3.2,0,12077,48.75,28.971,14123.4
147956198,0.634769,2.223,93.3885,0.125464,0.0448313,0.989765,-2.9404,0.596172,-0.00831611,-0.034864,1.31685,-0.0789544,-1.1,3.2,0,12077,48.75,28.971,14123.4
148056531,0.634769,2.223,93.4177,0.102749,0.0519399,0.990637,-3.03515,0.66717,-0.00428476,-0.160247,1.02706,-0.0535363,-1.1,3.2,0,12077,48.75,28.971,14123.4
148156901,0.634769,2.223,93.4327,0.0859732,0.0550519,0.990807,-3.10738,0.725566,-0.00872346,-0.0715754,0.800408,-0.111902,-1.1,3.2,0,12077,48.75,28.971,14123.4
148257259,0.634768,2.223,93.4397,0.0731375,0.0550701,0.990259,-3.1771,0.764064,-0.0304531,-0.17237,0.733023,-0.294135,-1.1,3.2,0,12077,48.75,28.971,14123.4
148357617,0.634768,2.223,93.4406,0.0632068,0.0530651,0.989859,-3.22337,0.785937,-0.0452821,-0.144964,0.438822,-0.0790287,-1.1,3.2,0,12077,48.75,28.971,14123.4
148457960,0.634768,2.223,93.4356,0.0574771,0.0503933,0.989512,-3.26793,0.809294,-0.0591114,-0.137125,0.492184,-0.169526,-1.1,3.2,0,12077,48.75,28.971,14123.4
148558372,0.634768,2.223,93.4218,0.0522246,0.047771,0.989046,-3.30215,0.820947,-0.0590365,-0.099559,0.399477,0.0500444,2.9,3.1,0,12077,48.75,28.971,14123.4
148658728,0.634768,2.223,93.4081,0.0442201,0.0301939,0.987427,-3.33094,0.826928,-0.0700311,-0.119847,0.313188,-0.157893,2.9,3.1,0,12077,48.75,28.971,14123.4
148759075,0.634768,2.223,93.3965,0.0225906,-0.147062,0.985873,-3.34837,0.827306,-0.0472128,0.236912,0.164995,0.474387,2.9,3.1,0,12077,48.75,28.971,14123.4
148859399,0.634768,2.223,93.3889,0.0053208,-0.300258,0.984676,-3.20146,1.02065,-0.0561343,2.64621,-0.0817489,0.147144,2.9,3.1,0,12077,48.75,28.971,14123.4
148959737,0.634768,2.223,93.3741,-0.00278007,-0.393381,0.982119,-2.97358,1.31686,-0.107146,3.71103,-0.189953,1.1449,2.9,3.1,0,12077,48.75,28.971,14123.4
149060103,0.634768,2.223,93.3544,-0.00250375,-0.437346,0.97819,-2.6812,1.69388,-0.118012,4.34507,-0.23885,2.10463,2.9,3.1,0,12077,48.75,28.971,14123.4
149160439,0.634768,2.223,93.3286,0.00574344,-0.449148,0.973654,-2.3663,2.09684,-0.120322,4.52758,-0.211134,2.40406,2.9,3.1,0,12077,48.75,28.971,14123.4
149260728,0.634768,2.223,93.3135,0.0218112,-0.426963,0.969361,-2.06017,2.5187,-0.104295,4.56521,-0.0198337,2.4828,2.9,3.1,0,12077,48.75,28.971,14123.4
149360992,0.634768,2.223,93.3072,0.0337083,-0.360945,0.968628,-1.78539,2.91777,-0.0702394,4.12129,0.0513472,2.09368,2.9,3.1,0,12032,48.808,26.439,12904.3
149461286,0.634768,2.223,93.3112,0.0450194,-0.284996,0.970756,-1.57116,3.24598,-0.041126,3.46774,0.116531,1.28683,2.9,3.1,0,12032,48.808,26.439,12904.3
149561646,0.634768,2.223,93.3185,0.0537656,-0.215232,0.974625,-1.43464,3.50149,-0.0244763,2.49618,0.369067,0.876089,2.9,3.1,0,12032,48.808,26.439,12904.3
149661966,0.634768,2.223,93.3331,0.055049,-0.159524,0.978288,-1.34029,3.6962,-0.0167511,1.88717,0.369949,0.340804,2.9,3.1,0,12032,48.808,26.439,12904.3
149762337,0.634768,2.223,93.3578,0.0549629,-0.11839,0.981258,-1.27704,3.84349,-0.0129179,1.38025,0.350271,-0.0314389,2.9,3.1,0,12032,48.808,26.439,12904.3
149862690,0.634768,2.223,93.3748,0.053185,-0.0876046,0.982522,-1.23719,3.95731,-0.0119746,0.959128,0.334586,-0.0321285,2.9,3.1,0,12032,48.808,26.439,12904.3
149963054,0.634768,2.223,93.3841,0.05031,-0.0675788,0.983893,-1.21103,4.03958,-0.0212268,0.647385,0.251275,-0.161336,2.9,3.1,0,12032,48.808,26.439,12904.3
150063396,0.634768,2.223,93.3911,0.0472862,-0.0527772,0.984305,-1.19465,4.10463,-0.0203232,0.502673,0.288832,-0.176273,2.9,3.1,0,12032,48.808,26.439,12904.3
150163751,0.634768,2.223,93.3986,0.0422632,-0.0432417,0.984837,-1.18712,4.15532,-0.0291261,0.413674,0.243328,-0.0408822,2.9,3.1,0,12032,48.808,26.439,12904.3
150264137,0.634768,2.223,93.4032,0.0372795,-0.0373157,0.985441,-1.18865,4.2059,-0.0300198,0.364942,0.238706,-0.108312,2.9,3.1,0,12032,48.808,26.439,12904.3
150364556,0.634768,2.223,93.4036,0.0329218,-0.0312045,0.98531,-1.18783,4.24027,-0.0403113,0.314367,0.145985,-0.247694,2.9,3.1,0,11987,48.857,27.572,13470.9
150464858,0.634768,2.223,93.3982,0.0300478,-0.0259897,0.985966,-1.18394,4.25928,-0.0511637,0.22123,0.0214896,0.0376092,2.9,3.1,0,11987,48.857,27.572,13470.9
150565281,0.634768,2.223,93.3932,0.0282753,-0.0236241,0.985747,-1.18841,4.26623,-0.0589212,0.092708,0.0123746,-0.087905,3,-4.2,0,11987,48.857,27.572,13470.9
150665544,0.634768,2.223,93.3881,0.0123511,-0.0216937,0.987517,-1.20136,4.27736,-0.058988,0.0759097,0.152142,0.278204,3,-4.2,0,11987,48.857,27.572,13470.9
150766782,0.634768,2.223,93.3774,-0.161325,-0.00576674,0.987713,-1.18429,4.26436,-0.00691945,0.0414053,-0.579499,0.368677,3,-4.2,0,11987,48.857,27.572,13470.9
150868237,0.634768,2.223,93.3761,-0.323578,0.0111547,0.981696,-0.987866,4.10132,-0.0286348,-0.226972,-2.83027,-0.107786,3,-4.2,0,11987,48.857,27.572,13470.9
150968637,0.634768,2.223,93.3695,-0.413359,0.0159833,0.97616,-0.707442,3.85334,-0.0835198,-0.349266,-3.63115,1.27453,3,-4.2,0,11987,48.857,27.572,13470.9
151069052,0.634768,2.223,93.3582,-0.45355,0.0178446,0.971407,-0.356082,3.5547,-0.100815,-0.386543,-4.20888,1.99614,3,-4.2,0,11987,48.857,27.572,13470.9
151169474,0.634768,2.223,93.3529,-0.460159,0.0181661,0.967546,0.0271938,3.22575,-0.0960659,-0.359122,-4.39288,2.33311,3,-4.2,0,11987,48.857,27.572,13470.9
151269849,0.634768,2.223,93.3432,-0.450316,0.0147961,0.966949,0.40691,2.90474,-0.0879222,-0.368735,-4.31042,2.26619,3,-4.2,0,11987,48.857,27.572,13470.9
151370092,0.634768,2.223,93.3113,-0.433441,0.00579521,0.968881,0.769991,2.59108,-0.0687005,-0.404321,-4.05933,2.30432,3,-4.2,0,11987,48.835,26.392,12888.5
151470432,0.634768,2.223,93.2882,-0.420471,-0.00937359,0.974243,1.12319,2.30717,-0.0534537,-0.241823,-3.95248,1.98137,3,-4.2,0,11987,48.835,26.392,12888.5
151570806,0.634768,2.223,93.2871,-0.409262,-0.0272969,0.981033,1.48137,2.05285,-0.0468794,0.00945305,-3.74354,2.01869,3,-4.2,0,11987,48.835,26.392,12888.5
151671150,0.634768,2.223,93.276,-0.399453,-0.0432821,0.986465,1.82589,1.82621,-0.0409095,0.111007,-3.47019,1.86581,3,-4.2,0,11987,48.835,26.392,12888.5
151771505,0.634768,2.223,93.2502,-0.391967,-0.0559431,0.991089,2.18042,1.62921,-0.0423951,0.295791,-3.58143,1.49723,3,-4.2,0,11987,48.835,26.392,12888.5
151871846,0.634768,2.223,93.2321,-0.385222,-0.0659572,0.994505,2.53033,1.43946,-0.0326611,0.312381,-3.37412,1.75672,3,-4.2,0,11987,48.835,26.392,12888.5
151972263,0.634768,2.223,93.228,-0.379659,-0.0724702,0.996542,2.87822,1.27142,-0.0211188,0.446343,-3.3353,1.60353,3,-4.2,0,11987,48.835,26.392,12888.5
152072605,0.634768,2.223,93.2257,-0.375751,-0.0772724,0.998047,3.22371,1.11634,-0.0113146,0.545995,-3.24031,1.47434,3,-4.2,0,11987,48.835,26.392,12888.5
152172974,0.634768,2.223,93.2241,-0.362039,-0.0790188,0.998056,3.56498,0.975899,0.00256434,0.594449,-3.228,1.38926,3,-4.2,0,11987,48.835,26.392,12888.5
152273315,0.634768,2.223,93.2249,-0.322565,-0.0733267,0.996059,3.87599,0.848188,0.0137198,0.480318,-2.87599,1.20995,3,-4.2,0,11987,48.835,26.392,12888.5
152373663,0.634768,2.223,93.2357,-0.280381,-0.068246,0.99421,4.13417,0.743909,0.0269021,0.404213,-2.44439,0.863967,3,-4.2,0,11987,48.893,25.434,12435.4
152473993,0.634768,2.223,93.247,-0.240129,-0.0626075,0.992269,4.34728,0.67164,0.0230604,0.446295,-2.02003,0.385805,3,-4.2,0,11987,48.893,25.434,12435.4
152574407,0.634768,2.223,93.2521,-0.206827,-0.0546609,0.990369,4.51422,0.617989,0.0324813,0.37751,-1.59666,0.23064,0.7,3,0,11987,48.893,25.434,12435.4
152674798,0.634768,2.223,93.257,-0.168433,-0.0444515,0.987059,4.6467,0.575679,0.0196506,0.266936,-1.31715,-0.00291592,0.7,3,0,11987,48.893,25.434,12435.4
152775169,0.634769,2.223,93.257,0.0519787,0.0236739,0.985271,4.7601,0.553797,0.0693987,0.251901,-0.841956,0.687451,0.7,3,0,11987,48.893,25.434,12435.4
152875487,0.634769,2.223,93.2701,0.293531,0.0895344,0.999093,4.56286,0.617265,0.107642,-0.74702,2.2886,0.415654,0.7,3,0,11987,48.893,25.434,12435.4
152976782,0.634769,2.223,93.278,0.423474,0.124133,1.01142,4.15998,0.751146,0.0331491,-1.20427,3.94508,1.27925,0.7,3,0,11987,48.893,25.434,12435.4
153082033,0.634769,2.223,93.2844,0.487484,0.146786,1.02144,3.51038,0.965718,-0.0093034,-1.42935,5.01008,2.3217,0.7,3,0,11987,48.893,25.434,12435.4
153182399,0.634769,2.223,93.2921,0.507095,0.162488,1.02875,2.92436,1.15368,-0.0508105,-1.54096,5.09904,2.80226,0.7,3,0,11987,48.893,25.434,12435.4
153282776,0.634769,2.223,93.2921,0.506251,0.1778,1.03533,2.30563,1.32712,-0.0750577,-1.83467,5.20151,2.7656,0.7,3,0,11987,48.893,25.434,12435.4
153383110,0.634769,2.223,93.2733,0.488318,0.181181,1.03517,1.6783,1.49064,-0.081589,-1.79839,4.98108,3.09311,0.7,3,0,11987,48.813,29.131,14219.7
153483463,0.634769,2.223,93.2594,0.463133,0.176851,1.03107,1.06296,1.63182,-0.0647834,-1.91462,4.73454,3.01626,0.7,3,0,11987,48.813,29.131,14219.7
153583818,0.634769,2.223,93.2553,0.441019,0.16891,1.02605,0.474359,1.76238,-0.0330045,-1.86766,4.50097,2.78448,0.7,3,0,11987,48.813,29.131,14219.7
153684211,0.634769,2.223,93.2493,0.416946,0.155374,1.01942,-0.0717385,1.88876,-0.0253161,-1.74225,4.27507,2.25182,0.7,3,0,11987,48.813,29.131,14219.7
153784561,0.634769,2.223,93.2394,0.35694,0.129119,1.00861,-0.575909,2.01217,-0.0127346,-1.53384,3.9554,2.06858,0.7,3,0,11987,48.813,29.131,14219.7
153884910,0.634769,2.223,93.236,0.289551,0.102229,0.999352,-0.980736,2.11902,0.0111702,-1.15789,3.24025,1.29848,0.7,3,0,11987,48.813,29.131,14219.7
153985257,0.634769,2.223,93.2456,0.219679,0.075668,0.992541,-1.2945,2.2071,0.0296002,-0.898813,2.57827,0.615865,0.7,3,0,11987,48.813,29.131,14219.7
154085607,0.634769,2.223,93.2601,0.162878,0.0531287,0.98853,-1.52463,2.26536,0.0323689,-0.676751,1.82006,0.301398,0.7,3,0,11987,48.813,29.131,14219.7
154185924,0.634769,2.223,93.2774,0.122193,0.0364504,0.986299,-1.69379,2.31067,0.0358062,-0.456639,1.39562,0.110187,0.7,3,0,11987,48.813,29.131,14219.7
154286210,0.634769,2.223,93.2918,0.0911176,0.0250377,0.985387,-1.8089,2.35152,0.0235295,-0.245528,0.987735,-0.174208,0.7,3,0,11987,48.813,29.131,14219.7
154386553,0.634769,2.223,93.3065,0.0714954,0.0189775,0.984989,-1.90222,2.38092,0.0206445,-0.25276,0.782263,-0.103913,0.7,3,0,11987,48.813,29.131,14219.7
154486988,0.634768,2.223,93.3235,0.0554676,0.0142859,0.985197,-1.96826,2.40093,0.0182244,-0.200322,0.567131,-0.2712,0.7,3,0,11987,48.844,27.525,13444.3
154587342,0.634768,2.223,93.3297,0.0438588,0.0126161,0.985296,-2.0109,2.41817,0.0078923,-0.0778486,0.39244,-0.0843891,-4.28424,-3.97179,0,11987,48.844,27.525,13444.3
154687684,0.634768,2.223,93.3284,0.0151259,0.0135001,0.985856,-2.04312,2.43368,-0.00143663,-0.0754231,0.386295,0.359462,-4.31624,-4.08552,0,11987,48.844,27.525,13444.3
154787966,0.634768,2.223,93.3323,-0.110347,0.0375811,0.982805,-2.03724,2.42159,0.0241322,-0.136115,-0.337236,-0.1491,-4.32802,-4.20158,0,11987,48.844,27.525,13444.3
154888422,0.634768,2.223,93.3394,-0.210325,0.0570587,0.980535,-1.92301,2.30038,-0.00821078,-0.420911,-1.71841,-0.127987,-4.35034,-4.30649,0,11987,48.844,27.525,13444.3
154988808,0.634768,2.223,93.3402,-0.270364,0.0709712,0.978223,-1.74042,2.11625,-0.0367311,-0.547402,-2.46699,0.523314,-4.36754,-4.40933,0,11987,48.844,27.525,13444.3
155089166,0.634768,2.223,93.3375,-0.298444,0.0798136,0.977246,-1.52218,1.89017,-0.0403755,-0.650641,-2.79328,1.01632,-4.39456,-4.47782,0,11987,48.844,27.525,13444.3
155189524,0.634768,2.223,93.336,-0.301012,0.0854251,0.976484,-1.28553,1.64839,-0.044112,-0.711201,-2.98566,1.05649,-4.41679,-4.54742,0,11987,48.844,27.525,13444.3
155289898,0.634768,2.223,93.33,-0.284138,0.087348,0.976665,-1.06143,1.39724,-0.040589,-0.862118,-2.89643,0.919716,-4.44672,-4.58198,0,11987,48.844,27.525,13444.3
155390314,0.634768,2.223,93.3176,-0.257501,0.0861695,0.977688,-0.852706,1.17003,-0.0420186,-0.710164,-2.63279,0.709394,-4.47522,-4.61743,0,11987,48.844,27.525,13444.3
155490606,0.634768,2.223,93.3137,-0.228257,0.084341,0.978484,-0.663895,0.967162,-0.0341558,-0.664325,-2.34498,0.522873,-4.50356,-4.62147,0,11987,48.74,29.407,14333
155590993,0.634768,2.223,93.3138,-0.197286,0.0816137,0.979488,-0.497418,0.782831,-0.029749,-0.630752,-2.04693,0.377647,-4.52755,-4.63073,0,11987,48.74,29.407,14333
155691398,0.634768,2.223,93.3136,-0.173452,0.0868768,0.978116,-0.363765,0.613452,-0.026232,-0.695247,-1.70759,0.561866,-4.53772,-4.61987,0,11987,48.74,29.407,14333
155791759,0.634768,2.223,93.3068,-0.206669,0.152998,0.970979,-0.253202,0.460013,0.00115204,-0.828847,-1.54676,0.423217,-4.48245,-4.60964,0,11987,48.74,29.407,14333
155892092,0.634768,2.223,93.3047,-0.253266,0.216586,0.958853,-0.155862,0.214451,-0.0359875,-1.64371,-1.94703,0.534281,-4.38809,-4.58312,0,11987,48.74,29.407,14333
155992454,0.634768,2.223,93.3005,-0.285872,0.258031,0.948822,-0.0514013,-0.115658,-0.0444742,-2.08906,-2.34035,1.23273,-4.30602,-4.56461,0,11987,48.74,29.407,14333
156092766,0.634768,2.223,93.2965,-0.301532,0.281282,0.942695,0.0598667,-0.500423,-0.0391912,-2.49355,-2.58029,1.50655,-4.24975,-4.53014,0,11987,48.74,29.407,14333
156193138,0.634768,2.223,93.2926,-0.305803,0.291596,0.939858,0.153238,-0.900926,-0.0388591,-2.51884,-2.4872,1.93192,-4.21309,-4.4974,0,11987,48.74,29.407,14333
156293485,0.634768,2.223,93.2919,-0.302151,0.293727,0.939607,0.241141,-1.30541,-0.0214649,-2.69065,-2.54032,1.46636,-4.18677,-4.45154,0,11987,48.74,29.407,14333
156393851,0.634768,2.223,93.2897,-0.297656,0.29228,0.940575,0.317363,-1.69417,-0.0189892,-2.56518,-2.41465,1.61375,-4.16141,-4.40247,0,11987,48.74,29.407,14333
156494210,0.634768,2.223,93.2921,-0.292172,0.289986,0.942042,0.395097,-2.07981,-0.0145977,-2.53102,-2.3979,1.51208,-4.12458,-4.33976,0,11987,48.777,25.972,12668.4
156594597,0.634768,2.223,93.2964,-0.285888,0.285217,0.943987,0.464162,-2.45314,-0.00533809,-2.46595,-2.29806,1.50652,-4.08779,-4.27573,0,11987,48.777,25.972,12668.4
156694920,0.634768,2.223,93.3068,-0.27879,0.279649,0.946034,0.526748,-2.80334,-0.00155566,-2.39429,-2.23218,1.07719,-4.03127,-4.19474,0,11987,48.777,25.972,12668.4
156795302,0.634768,2.223,93.3151,-0.272191,0.275983,0.947407,0.582991,-3.13362,-0.00400203,-2.27825,-2.07159,1.08166,-3.96704,-4.11206,0,11987,48.777,25.972,12668.4
156895659,0.634768,2.223,93.3254,-0.269007,0.272088,0.947971,0.645693,-3.45895,0.00447438,-2.20423,-2.09304,1.03322,-3.88629,-4.02391,0,11987,48.777,25.972,12668.4
156996040,0.634768,2.223,93.3388,-0.26664,0.270065,0.948819,0.700741,-3.7683,0.00485254,-2.14955,-1.98279,1.03174,-3.80081,-3.92633,0,11987,48.777,25.972,12668.4
157096389,0.634768,2.223,93.3454,-0.262628,0.265847,0.949787,0.752847,-4.06601,-0.0165599,-2.07182,-1.95321,0.900587,-3.70575,-3.82238,0,11987,48.777,25.972,12668.4
157196748,0.634768,2.223,93.3511,-0.239564,0.241886,0.95624,0.806872,-4.35325,-0.0084805,-1.85513,-1.79194,1.13287,-3.64591,-3.71124,0,11987,48.777,25.972,12668.4
157297079,0.634768,2.223,93.3534,-0.200929,0.202927,0.965042,0.858465,-4.59096,-0.00408708,-1.50881,-1.48834,0.825166,-3.5954,-3.59698,0,11987,48.777,25.972,12668.4
157397417,0.634768,2.223,93.3543,-0.160163,0.163645,0.972763,0.884691,-4.76476,-0.000204099,-1.19997,-1.04035,0.469739,-3.53568,-3.4815,0,11987,48.777,25.972,12668.4
157497697,0.634768,2.223,93.3528,-0.121524,0.126374,0.978361,0.908033,-4.88637,-0.00138314,-0.833562,-0.734317,0.209212,-3.44541,-3.35407,0,11987,48.793,25.956,12664.7
157598118,0.634769,2.223,93.3586,-0.0883599,0.0936523,0.981721,0.928867,-4.95328,-0.00228942,-0.441135,-0.450342,0.00113197,-3.34236,-3.22954,0,11987,48.793,25.956,12664.7
157698448,0.634769,2.223,93.3598,-0.0560668,0.0626683,0.98421,0.931885,-4.96653,0.000301156,-0.105225,-0.0445209,-0.00570384,-3.23487,-3.10754,0,11987,48.793,25.956,12664.7
157798749,0.634769,2.223,93.3572,-0.0310169,0.0379509,0.984769,0.923124,-4.93887,-0.0107428,0.141855,0.245197,-0.0518093,-3.11444,-2.98516,0,11987,48.793,25.956,12664.7
157899103,0.634769,2.223,93.3565,-0.00868044,0.0155704,0.985607,0.912478,-4.87668,-0.01898,0.422975,0.440453,0.116373,-3.00169,-2.86788,0,11987,48.793,25.956,12664.7
157999449,0.634769,2.223,93.3542,0.00774679,-0.00255297,0.985169,0.882047,-4.76043,-0.0173858,0.563504,0.714459,0.00970309,-2.8814,-2.75089,0,11987,48.793,25.956,12664.7
158099792,0.634769,2.223,93.3514,0.0211012,-0.0151903,0.985857,0.851747,-4.64438,-0.0337781,0.596745,0.820001,-0.029998,-2.77654,-2.64281,0,11987,48.793,25.956,12664.7
158200215,0.634769,2.223,93.3504,0.0288601,-0.0232694,0.985421,0.820761,-4.50355,-0.0428743,0.776279,0.904152,0.0524057,-2.66522,-2.5359,0,11987,48.793,25.956,12664.7
158300562,0.634769,2.223,93.344,0.0316945,-0.027982,0.985211,0.790201,-4.36825,-0.0503584,0.775835,0.847675,0.117636,-2.56952,-2.44263,0,11987,48.793,25.956,12664.7
158400921,0.634769,2.223,93.3308,0.0360281,-0.0311407,0.985225,0.76463,-4.20781,-0.0569406,0.966539,0.912099,-0.05318,-2.46987,-2.34519,0,11987,48.793,25.956,12664.7
158501284,0.634769,2.223,93.3145,0.0385553,-0.0291696,0.985938,0.734689,-4.05246,-0.0601189,0.910727,0.940124,0.158372,-2.38719,-2.26171,0,11987,48.645,28.533,13879.9
158601682,0.634769,2.223,93.3042,0.0381562,-0.0268732,0.98617,0.695371,-3.90307,-0.0558891,0.803911,0.975471,0.320557,-2.29838,-2.17525,0,11987,48.645,28.533,13879.9
158702036,0.634769,2.223,93.291,0.0315798,-0.0216967,0.986315,0.662192,-3.75897,-0.0591342,0.799861,0.890746,0.0998877,-2.22234,-2.10412,0,11987,48.645,28.533,13879.9
158802398,0.634769,2.223,93.2834,0.0268326,-0.0181802,0.985832,0.631427,-3.62825,-0.0560876,0.694984,0.750161,0.239319,-2.13937,-2.02934,0,11987,48.645,28.533,13879.9
158902766,0.634769,2.223,93.2821,0.0218715,-0.0136606,0.985625,0.60135,-3.50086,-0.0418544,0.701509,0.759403,0.11441,-2.06832,-1.96626,0,11987,48.645,28.533,13879.9
159003173,0.634769,2.223,93.2816,0.0186355,-0.0107635,0.986026,0.575992,-3.37615,-0.0429951,0.697971,0.724502,0.0467016,-1.99809,-1.90043,0,11987,48.645,28.533,13879.9
159103522,0.634769,2.223,93.2852,0.0127239,-0.0063584,0.985743,0.549081,-3.26502,-0.0233743,0.610947,0.70579,0.179425,-1.92624,-1.83957,0,11987,48.645,28.533,13879.9
159203862,0.634769,2.223,93.2865,0.00844171,-0.00696569,0.985895,0.520099,-3.16504,-0.0275166,0.600935,0.650378,-0.0352188,-1.85458,-1.77688,0,11987,48.645,28.533,13879.9
159304404,0.634769,2.223,93.2897,0.00735395,-0.00799696,0.985864,0.505858,-3.06976,-0.0181115,0.613822,0.502217,0.147226,-1.78493,-1.72003,0,11987,48.645,28.533,13879.9
159404823,0.634769,2.223,93.285,0.00409036,-0.0100399,0.985624,0.478865,-2.97119,-0.0163293,0.588019,0.607896,0.147532,-1.71214,-1.65806,0,11987,48.645,28.533,13879.9
159505192,0.634769,2.223,93.2857,0.00352103,-0.0126198,0.98555,0.463025,-2.88061,-0.0166901,0.592091,0.517234,0.00705521,-1.64129,-1.59822,0,11987,48.879,27.063,13228.1
159605602,0.634769,2.223,93.2891,0.00269689,-0.0141934,0.98571,0.451147,-2.78763,-0.00840731,0.66925,0.476034,0.00186009,-1.57209,-1.53717,0,11987,48.879,27.063,13228.1
159705968,0.634769,2.223,93.2878,0.00515328,-0.0164564,0.985417,0.444516,-2.70112,-0.0154022,0.669936,0.460241,-0.197378,-1.50494,-1.48096,0,11987,48.879,27.063,13228.1
159806328,0.634769,2.223,93.2865,0.00646786,-0.0176452,0.98519,0.432453,-2.61151,-0.0156522,0.678277,0.504765,0.0627587,-1.43339,-1.41935,0,11987,48.879,27.063,13228.1
159906682,0.634769,2.223,93.2799,0.00731141,-0.0199335,0.985059,0.419987,-2.52097,-0.0166054,0.664476,0.553052,-0.0206677,-1.36762,-1.36166,0,11987,48.879,27.063,13228.1
160007113,0.634769,2.223,93.2815,0.0085173,-0.020941,0.985384,0.41578,-2.4349,-0.0161016,0.637591,0.461041,0.0896309,-1.30635,-1.30531,0,11987,48.879,27.063,13228.1
160107465,0.634769,2.223,93.2759,0.00912593,-0.0199474,0.985403,0.412978,-2.34636,-0.0234244,0.679628,0.488631,0.103894,-1.2466,-1.25036,0,11987,48.879,27.063,13228.1
160207802,0.634769,2.223,93.2771,0.0110023,-0.0211684,0.985447,0.398106,-2.25515,-0.0133488,0.656591,0.578229,0.013883,-1.18963,-1.19714,0,11987,48.879,27.063,13228.1
160308248,0.634769,2.223,93.2787,0.00959545,-0.0204368,0.98542,0.387791,-2.16641,-0.00983018,0.652086,0.546325,0.095522,-1.13369,-1.14564,0,11987,48.879,27.063,13228.1
160408624,0.634769,2.223,93.277,0.0104507,-0.0217997,0.985093,0.37636,-2.078,-0.0197064,0.648479,0.525671,0.000630435,-1.08002,-1.09676,0,11987,48.879,27.063,13228.1
160508985,0.634769,2.223,93.2755,0.00986167,-0.0206947,0.985053,0.368421,-1.99376,-0.0176399,0.656687,0.45906,0.143938,-1.02856,-1.04857,0,11987,48.879,27.063,13228.1
160609384,0.634769,2.223,93.2726,0.00921255,-0.0180905,0.984798,0.358054,-1.91048,-0.0145254,0.667133,0.498119,0.00912706,-0.97996,-1.00256,0,11987,48.902,23.39,11438.2
160709786,0.634769,2.223,93.2682,0.00758318,-0.016554,0.984613,0.34509,-1.82374,-0.0208912,0.664847,0.555081,0.148066,-0.933065,-0.958005,0,11987,48.902,23.39,11438.2
160810121,0.634769,2.223,93.2665,0.00761407,-0.0147902,0.984733,0.33944,-1.74658,-0.0167179,0.635208,0.454136,-0.102514,-0.891278,-0.917588,0,11987,48.902,23.39,11438.2
160910477,0.634769,2.223,93.2635,0.00809329,-0.0133255,0.984583,0.332438,-1.6664,-0.00726313,0.613166,0.481095,0.0361807,-0.846318,-0.874548,0,11987,48.902,23.39,11438.2
161010823,0.634769,2.223,93.262,0.00787002,-0.0112402,0.984486,0.31905,-1.59449,-0.0119145,0.549072,0.477625,0.0306719,-0.808056,-0.837111,0,11987,48.902,23.39,11438.2
161111239,0.634769,2.223,93.2639,0.00733378,-0.0103863,0.984687,0.308581,-1.52939,-0.00523781,0.505562,0.436953,0.0562481,-0.767686,-0.79686,0,11987,48.902,23.39,11438.2
161211641,0.634769,2.223,93.2662,0.00610235,-0.00944017,0.984614,0.294952,-1.45956,0.000504702,0.507562,0.486588,0.0754928,-0.731309,-0.760455,0,11987,48.902,23.39,11438.2
161312107,0.634769,2.223,93.273,0.00713381,-0.00912223,0.984625,0.28531,-1.39663,0.002746,0.465714,0.425083,-0.0649266,-0.695763,-0.725733,0,11987,48.902,23.39,11438.2
161412476,0.634769,2.223,93.2812,0.00579744,-0.00823148,0.984954,0.262567,-1.33135,0.00781935,0.454143,0.521392,0.0206303,-0.664019,-0.694132,0,11987,48.902,23.39,11438.2
161512833,0.634769,2.223,93.29,0.00337188,-0.00736467,0.984952,0.252488,-1.26602,0.00250989,0.474684,0.375576,0.067422,-0.630794,-0.663639,0,11987,48.902,23.39,11438.2
161613274,0.634769,2.223,93.2937,0.00260079,-0.00769798,0.984987,0.243009,-1.20692,0.0025634,0.465462,0.370956,-0.155279,-0.601632,-0.636985,0,11987,48.906,23.607,11545.2
161713655,0.634769,2.223,93.2961,0.000605668,-0.00742246,0.98509,0.234773,-1.1487,-0.00626277,0.478179,0.327738,-0.101352,-0.571736,-0.611632,0,11987,48.906,23.607,11545.2
161814045,0.634769,2.223,93.2964,-0.00059493,-0.00618918,0.984923,0.23228,-1.09608,-0.0100436,0.451135,0.258854,0.0275375,-0.542723,-0.58551,0,11987,48.906,23.607,11545.2
161914382,0.634769,2.223,93.2908,-0.000389361,-0.00595323,0.984588,0.224657,-1.04197,-0.0156734,0.438542,0.305953,-0.00676614,-0.513784,-0.56049,0,11987,48.906,23.607,11545.2
162014769,0.634769,2.223,93.284,3.52209e-05,-0.00566468,0.984836,0.213266,-0.985958,-0.0168439,0.437438,0.356261,0.104484,-0.48781,-0.536005,0,11987,48.906,23.607,11545.2
162115154,0.634769,2.223,93.2781,-0.00162107,-0.00492691,0.985059,0.207312,-0.936,-0.0121317,0.413506,0.295448,0.0185128,-0.461809,-0.513072,0,11987,48.906,23.607,11545.2
162215530,0.634769,2.223,93.2734,-0.00251163,-0.00435352,0.985054,0.204142,-0.882739,-0.0109527,0.472506,0.289289,0.0578311,-0.438249,-0.491369,0,11987,48.906,23.607,11545.2
162315936,0.634769,2.223,93.2694,-0.00344646,-0.00275331,0.985067,0.196974,-0.836155,-0.00699242,0.401261,0.294382,-0.0274777,-0.396054,-0.450102,0,11987,48.906,23.607,11545.2
162416301,0.634769,2.223,93.2681,-0.0028089,-0.00292015,0.984973,0.196043,-0.797578,-0.011915,0.354581,0.237689,-0.175378,-0.375904,-0.429682,0,11987,48.906,23.607,11545.2
162516660,0.634769,2.223,93.2681,-0.00113754,-0.00419662,0.984954,0.192335,-0.759762,-0.00902094,0.349335,0.27238,0.108162,-0.358371,-0.411411,0,11987,48.906,23.607,11545.2
162617075,0.634769,2.223,93.2653,-0.00204221,-0.00322854,0.985145,0.18391,-0.706983,-0.00968257,0.382963,0.33865,-0.140968,-0.342474,-0.394564,0,11987,48.875,23.893,11677.7
162717399,0.634769,2.223,93.2632,-0.00515764,-0.00154406,0.985123,0.181635,-0.65658,-0.00337884,0.417524,0.243081,-0.0898674,-0.328042,-0.378739,0,11987,48.875,23.893,11677.7
162817802,0.634769,2.223,93.2577,-0.00687512,0.00163183,0.985064,0.174431,-0.618164,-0.005404,0.300555,0.232184,0.175006,-0.314388,-0.363728,0,11987,48.875,23.893,11677.7
162918121,0.634769,2.223,93.2521,-0.00828975,0.00384799,0.984892,0.166439,-0.576447,-0.0137244,0.320094,0.250894,-0.0938864,-0.301544,-0.34932,0,11987,48.875,23.893,11677.7
163018529,0.634769,2.223,93.2419,-0.00953372,0.00654298,0.985041,0.162992,-0.540187,-0.00881487,0.239976,0.163181,0.168271,-0.289184,-0.336405,0,11987,48.875,23.893,11677.7
163118870,0.634769,2.223,93.228,-0.0109524,0.00935176,0.984986,0.161988,-0.50256,-0.0120458,0.311048,0.130032,-0.0474148,-0.277857,-0.324316,0,11987,48.875,23.893,11677.7
163219207,0.634769,2.223,93.2194,-0.0109316,0.0106113,0.98521,0.16387,-0.481617,-0.00971203,0.195948,0.0390921,0.256921,-0.267424,-0.312617,0,11987,48.875,23.893,11677.7
163319563,0.634769,2.223,93.2194,-0.00985791,0.0106919,0.984949,0.157636,-0.459342,0.00299929,0.175294,0.139516,0.141042,-0.257715,-0.300885,0,11987,48.875,23.893,11677.7
163419937,0.634769,2.223,93.2265,-0.0117758,0.0117343,0.985082,0.147529,-0.430145,0.014912,0.181958,0.213792,0.0926648,-0.247617,-0.288304,0,11987,48.875,23.893,11677.7
163520351,0.634769,2.223,93.2352,-0.0120356,0.0113091,0.985184,0.150153,-0.409359,0.0200864,0.210674,0.0794616,-0.0999353,-0.238163,-0.276082,0,11987,48.875,23.893,11677.7
163620737,0.634769,2.223,93.2427,-0.0109164,0.0122661,0.985143,0.148942,-0.385531,0.0237779,0.175568,0.109954,-0.0722962,-0.229207,-0.263299,0,11987,48.867,24.476,11960.7
163721175,0.634769,2.223,93.2488,-0.00898566,0.0122294,0.985497,0.141562,-0.363029,0.0199153,0.158743,0.139564,0.0395146,-1.5,-4.1,0,11987,48.867,24.476,11960.7
163821538,0.634769,2.223,93.2548,-0.00650342,0.0107807,0.985635,0.13245,-0.335859,0.0228877,0.177764,0.212256,-0.0772642,-1.5,-4.1,0,11987,48.867,24.476,11960.7
163921953,0.634769,2.223,93.2499,0.00271323,0.000267535,0.98581,0.125582,-0.299515,0.0180344,0.301076,0.265122,-0.0673599,-1.5,-4.1,0,11987,48.867,24.476,11960.7
164022329,0.634769,2.223,93.2445,0.00819343,-0.00418002,0.985938,0.113478,-0.256169,0.0107944,0.32303,0.327009,-0.0946389,-1.5,-4.1,0,11987,48.867,24.476,11960.7
164122652,0.634769,2.223,93.2405,0.0111292,-0.0057437,0.986141,0.105301,-0.213036,0.00455849,0.355933,0.31711,0.0684442,-1.5,-4.1,0,11987,48.867,24.476,11960.7
164223013,0.634769,2.223,93.2394,0.0122034,-0.0044985,0.986188,0.0882566,-0.159787,0.00751242,0.367968,0.366798,-0.103872,-1.5,-4.1,0,11987,48.867,24.476,11960.7
164323400,0.634769,2.223,93.2329,0.00999482,-0.000455005,0.986169,0.0730461,-0.118978,0.00861636,0.231837,0.305811,-0.0731273,-1.5,-4.1,0,11987,48.867,24.476,11960.7
164423749,0.634769,2.223,93.2253,0.00684837,0.003008,0.98648,0.0612502,-0.0802314,-0.00268755,0.262434,0.311455,-0.142155,-1.5,-4.1,0,11987,48.867,24.476,11960.7
164524115,0.634769,2.223,93.222,0.00441309,0.00740875,0.986347,0.0505133,-0.0443913,0.000423088,0.222425,0.269726,0.0756718,-1.5,-4.1,0,11987,48.867,24.476,11960.7
164624417,0.634769,2.223,93.2161,0.0026001,0.0109419,0.986328,0.0402527,-0.0159859,0.00499267,0.199824,0.237287,0.244759,-1.5,-4.1,0,11987,48.867,24.476,11960.7
164724797,0.634769,2.223,93.2145,0.000730193,0.0134778,0.986599,0.0281587,0.00124413,0.0109487,0.0855712,0.180223,0.194588,-1.5,-4.1,0,11942,48.849,24.324,11882
164825155,0.634769,2.223,93.2186,-0.00952131,0.0175884,0.987291,0.0175781,0.0178033,0.0180105,0.0361476,0.138109,0.127676,-1.5,-4.1,0,11942,48.849,24.324,11882
164925501,0.634769,2.223,93.2337,-0.141473,0.0636715,0.981784,0.0156449,0.0260974,0.0585076,-0.0215566,-0.161571,0.048206,-1.5,-4.1,0,11942,48.849,24.324,11882
165025806,0.634769,2.223,93.2505,-0.283195,0.108037,0.970123,0.106361,-0.103669,0.0227553,-0.661348,-1.71975,-0.185089,-1.5,-4.1,0,11942,48.849,24.324,11882
165126202,0.634769,2.223,93.2617,-0.377303,0.136439,0.959426,0.295771,-0.339441,-0.0110917,-0.910604,-2.8094,1.09805,-1.5,-4.1,0,11942,48.849,24.324,11882
165226582,0.634769,2.223,93.2671,-0.42156,0.151434,0.953092,0.549462,-0.650754,-0.00730838,-1.08896,-3.5172,1.70833,-1.5,-4.1,0,11942,48.849,24.324,11882
165326934,0.634769,2.223,93.275,-0.434517,0.159137,0.950002,0.825648,-0.996049,0.00758469,-1.183,-3.6668,2.03279,-1.5,-4.1,0,11942,48.849,24.324,11882
165427289,0.634769,2.223,93.2805,-0.43177,0.161669,0.949661,1.09387,-1.34557,0.0129335,-1.30729,-3.68719,1.96167,-1.5,-4.1,0,11942,48.849,24.324,11882
165527631,0.634769,2.223,93.2775,-0.424083,0.161278,0.950438,1.3601,-1.68947,0.0111214,-1.26912,-3.69833,1.72816,-1.5,-4.1,0,11942,48.849,24.324,11882
165628044,0.634769,2.223,93.2794,-0.39882,0.152948,0.954338,1.61315,-2.02912,0.00880338,-1.28511,-3.57455,1.67422,-1.5,-4.1,0,11942,48.849,24.324,11882
165728449,0.634769,2.223,93.2857,-0.346325,0.137402,0.960799,1.84654,-2.33014,0.00983254,-1.07673,-3.16867,1.24254,-1,2.7,0,11898,48.845,24.741,12084.7
165828816,0.634769,2.223,93.2906,-0.279858,0.120316,0.966604,2.03819,-2.58317,0.0191573,-0.959478,-2.62484,0.988272,-1,2.7,0,11898,48.845,24.741,12084.7
165929167,0.634769,2.223,93.3009,-0.0388864,0.0767469,0.988459,2.18363,-2.78003,0.0911575,-0.714409,-1.77657,0.746395,-1,2.7,0,11898,48.845,24.741,12084.7
166029523,0.634769,2.223,93.3152,0.250949,0.0241419,0.992461,2.0906,-2.7556,0.118551,-0.255794,1.51189,0.371734,-1,2.7,0,11898,48.845,24.741,12084.7
166129877,0.634769,2.223,93.3213,0.404657,7.11977e-05,0.984859,1.8177,-2.54458,0.0101372,0.2479,3.88274,0.0334586,-1,2.7,0,11898,48.845,24.741,12084.7
166230230,0.634769,2.223,93.3198,0.475692,-0.011893,0.97811,1.45223,-2.24289,-0.0541127,0.438467,4.58912,1.9915,-1,2.7,0,11898,48.845,24.741,12084.7
166330570,0.634769,2.223,93.3105,0.495218,-0.0173023,0.974871,1.03213,-1.89968,-0.0944923,0.466963,4.94436,2.32761,-1,2.7,0,11898,48.845,24.741,12084.7
166430906,0.634769,2.223,93.2997,0.487726,-0.0186219,0.972945,0.593627,-1.52361,-0.100879,0.56551,5.04682,2.69903,-1,2.7,0,11898,48.845,24.741,12084.7
166531292,0.634769,2.223,93.2738,0.47092,-0.00599595,0.977522,0.151438,-1.14532,-0.0812888,0.532604,4.96057,2.67761,-1,2.7,0,11898,48.845,24.741,12084.7
166631632,0.634769,2.223,93.2542,0.455209,0.00937403,0.983076,-0.283984,-0.791369,-0.0670525,0.374843,4.75988,2.5706,-1,2.7,0,11898,48.845,24.741,12084.7
166731982,0.634769,2.223,93.2466,0.440181,0.0244106,0.987122,-0.704381,-0.461253,-0.0538981,0.307949,4.45302,2.43092,-1,2.7,0,11898,48.824,25.582,12490.2
166832374,0.634769,2.223,93.243,0.407943,0.0392226,0.990944,-1.12257,-0.159029,-0.0416891,0.0749492,4.33665,2.09278,-1,2.7,0,11898,48.824,25.582,12490.2
166932745,0.634769,2.223,93.2456,0.336998,0.0483878,0.991856,-1.51939,0.0991508,-0.00679481,-0.108692,3.83726,1.89218,-1,2.7,0,11898,48.824,25.582,12490.2
167033102,0.634769,2.223,93.252,0.261466,0.0562316,0.993251,-1.83292,0.29956,0.0244283,-0.119544,3.0035,1.33748,-1,2.7,0,11898,48.824,25.582,12490.2
167133469,0.634769,2.223,93.2647,0.19524,0.0621499,0.993931,-2.06878,0.438981,0.0415841,-0.186987,2.20425,0.645108,-1,2.7,0,11898,48.824,25.582,12490.2
167233840,0.634769,2.223,93.2792,0.14329,0.0627052,0.993576,-2.25602,0.525778,0.0407265,-0.36873,1.63475,0.162518,-1,2.7,0,11898,48.824,25.582,12490.2
167334185,0.634769,2.223,93.2957,0.106536,0.0593502,0.992542,-2.38337,0.580556,0.036905,-0.305984,1.06122,-0.0112703,-1,2.7,0,11898,48.824,25.582,12490.2
167435737,0.634769,2.223,93.3067,0.0819574,0.05501,0.991116,-2.49876,0.633136,0.0422885,-0.197509,0.77593,-0.0909482,-1,2.7,0,11898,48.824,25.582,12490.2
167539094,0.634769,2.223,93.3174,0.0636799,0.0502583,0.990332,-2.56629,0.658952,0.0168449,-0.210131,0.567933,-0.291801,-1,2.7,0,11898,48.824,25.582,12490.2
167639490,0.634769,2.223,93.3225,0.0532718,0.0469859,0.989381,-2.62046,0.681327,0.021666,-0.11827,0.443028,0.00803676,-1,2.7,0,11898,48.824,25.582,12490.2
167739897,0.634769,2.223,93.3225,0.0460872,0.0439709,0.988755,-2.66159,0.691441,0.00503939,-0.151574,0.329092,-0.247272,1.6,1.2,0,11898,48.745,27.219,13267.9
167840321,0.634769,2.223,93.3157,0.0287869,0.0128273,0.984885,-2.68968,0.696278,-0.0126277,-0.140139,0.245453,-0.0523598,1.6,1.2,0,11898,48.745,27.219,13267.9
167940688,0.634769,2.223,93.3095,-0.0696245,-0.166591,0.990151,-2.6639,0.726141,0.0272816,0.85816,-0.223846,0.35389,1.6,1.2,0,11898,48.745,27.219,13267.9
168041049,0.634769,2.223,93.3074,-0.152636,-0.296786,1.00678,-2.4132,0.863352,-0.0214635,2.7214,-1.32219,0.0314559,1.6,1.2,0,11898,48.745,27.219,13267.9
168141416,0.634769,2.223,93.2995,-0.195101,-0.361966,1.0162,-2.04845,1.06483,-0.0783287,3.54946,-1.75429,1.45154,1.6,1.2,0,11898,48.745,27.219,13267.9
168241813,0.634769,2.223,93.2842,-0.191223,-0.35041,1.01002,-1.62421,1.28538,-0.0822816,3.8137,-1.95403,1.86292,1.6,1.2,0,11898,48.745,27.219,13267.9
168342170,0.634769,2.223,93.2598,-0.157518,-0.300467,0.998219,-1.21951,1.49458,-0.0678053,3.57359,-1.81033,1.74702,1.6,1.2,0,11898,48.745,27.219,13267.9
168442487,0.634769,2.223,93.2376,-0.117403,-0.234695,0.988474,-0.895623,1.66144,-0.0486978,2.82048,-1.43364,1.32461,1.6,1.2,0,11898,48.745,27.219,13267.9
168542858,0.634769,2.223,93.2235,-0.0751923,-0.172872,0.983236,-0.649748,1.79429,-0.0368132,2.20924,-1.02667,0.810301,1.6,1.2,0,11898,48.745,27.219,13267.9
168643131,0.634769,2.223,93.2157,-0.0411204,-0.123632,0.981474,-0.479779,1.89316,-0.0128888,1.51576,-0.62609,0.564707,1.6,1.2,0,11898,48.745,27.219,13267.9
168743510,0.634769,2.223,93.2189,-0.0159249,-0.0871804,0.981798,-0.356793,1.97539,-0.00555878,1.16264,-0.374092,0.317977,1.6,1.2,0,11898,48.704,28.676,13966.4
168843858,0.634769,2.223,93.225,0.0041936,-0.0596885,0.982529,-0.274315,2.0344,0.00910759,0.778595,-0.117672,0.0451651,1.6,1.2,0,11898,48.704,28.676,13966.4
168944253,0.634769,2.223,93.2299,0.0158287,-0.0408174,0.983171,-0.22544,2.08935,0.00616858,0.577747,0.0306041,-0.021521,1.6,1.2,0,11898,48.704,28.676,13966.4
169044617,0.634769,2.223,93.2449,0.0195188,-0.0279513,0.983561,-0.203359,2.13176,0.0212479,0.351738,0.204496,0.0749978,1.6,1.2,0,11898,48.704,28.676,13966.4
169144986,0.634769,2.223,93.2531,0.01823,-0.0188179,0.984081,-0.189587,2.16711,0.0216461,0.22948,0.227184,-0.113302,1.6,1.2,0,11898,48.704,28.676,13966.4
169245317,0.634769,2.223,93.267,0.0159706,-0.0135772,0.984,-0.181518,2.1916,0.0234324,0.161603,0.187126,0.00502398,1.6,1.2,0,11898,48.704,28.676,13966.4
169345677,0.634769,2.223,93.2763,0.0116755,-0.012473,0.984403,-0.183364,2.2077,0.0238815,0.104178,0.172872,-0.177359,1.6,1.2,0,11898,48.704,28.676,13966.4
169446028,0.634769,2.223,93.2777,0.00911088,-0.011259,0.984205,-0.185778,2.2217,0.0108072,0.0748089,0.134089,0.00463072,1.6,1.2,0,11898,48.704,28.676,13966.4
169546373,0.634769,2.223,93.2742,0.00632629,-0.0110412,0.984319,-0.182616,2.23246,0.00764101,0.0706004,0.0603896,0.0153914,1.6,1.2,0,11898,48.704,28.676,13966.4
169646718,0.634769,2.223,93.2754,0.00569934,-0.0101765,0.984322,-0.185069,2.24103,0.011649,0.044488,0.10067,0.0110109,1.6,1.2,0,11898,48.704,28.676,13966.4
169747088,0.634769,2.223,93.2745,0.00593794,-0.00936509,0.98421,-0.178339,2.24865,0.0071067,0.0922149,0.00959904,-0.0636266,0.9,-0.6,0,11898,48.783,28.676,13989
169847447,0.634769,2.223,93.2721,-0.000218065,-0.0067558,0.984809,-0.184577,2.25238,-0.00777024,0.0277974,0.0420917,-0.101099,0.9,-0.6,0,11898,48.783,28.676,13989
169947819,0.634769,2.223,93.2748,-0.134637,0.0438431,0.9813,-0.180301,2.25855,0.0294339,0.0147239,-0.232172,0.341573,0.9,-0.6,0,11898,48.783,28.676,13989
170048199,0.634769,2.223,93.2819,-0.247396,0.0867128,0.971931,-0.073799,2.10543,0.0205351,-0.730426,-1.96503,-0.247312,0.9,-0.6,0,11898,48.783,28.676,13989
170148507,0.634769,2.223,93.2837,-0.294837,0.102149,0.966351,0.0837958,1.87117,-0.0282654,-0.957675,-2.5816,0.746038,0.9,-0.6,0,11898,48.783,28.676,13989
170248918,0.634769,2.223,93.289,-0.290881,0.0999975,0.96638,0.272234,1.60168,-0.0269444,-1.0772,-2.89984,0.977993,0.9,-0.6,0,11898,48.783,28.676,13989
170349313,0.634769,2.223,93.3062,-0.254473,0.0861181,0.970203,0.451648,1.35256,-0.0163668,-0.953682,-2.67491,0.922578,0.9,-0.6,0,11898,48.783,28.676,13989
170449679,0.634769,2.223,93.3161,-0.204726,0.0669904,0.974717,0.600806,1.15336,-0.00997637,-0.727945,-2.20868,0.399858,0.9,-0.6,0,11898,48.783,28.676,13989
170550037,0.634769,2.223,93.3142,-0.161226,0.0509146,0.978009,0.701395,0.999001,-0.00882028,-0.621387,-1.56569,0.345996,0.9,-0.6,0,11898,48.783,28.676,13989
170650363,0.634769,2.223,93.3092,-0.12787,0.0379088,0.98001,0.787603,0.874331,-0.0102994,-0.488328,-1.27142,0.223649,0.9,-0.6,0,11898,48.783,28.676,13989
170750723,0.634769,2.223,93.3109,-0.10351,0.0249205,0.981817,0.860067,0.777988,-0.0198102,-0.332229,-0.992888,0.205949,0.9,-0.6,0,11898,48.783,28.676,13989
170851071,0.634769,2.223,93.3036,-0.0846987,0.0160071,0.982932,0.915211,0.715303,-0.0184491,-0.171081,-0.688797,0.0748445,0.9,-0.6,0,11854,48.814,25.396,12396.8
170951464,0.634769,2.223,93.2884,-0.0703864,0.00897907,0.983714,0.963083,0.667503,-0.0240387,-0.108711,-0.479257,0.0543754,0.9,-0.6,0,11854,48.814,25.396,12396.8
171051789,0.634769,2.223,93.2793,-0.0602826,0.00547476,0.984144,1.00413,0.634649,-0.0287648,-0.0604596,-0.42099,0.0266262,0.9,-0.6,0,11854,48.814,25.396,12396.8
171152202,0.634769,2.223,93.2756,-0.0508953,0.00417889,0.98442,1.0444,0.613794,-0.0280464,0.0412977,-0.336337,-0.0273455,0.9,-0.6,0,11854,48.814,25.396,12396.8
171252545,0.634769,2.223,93.272,-0.0458365,0.00538131,0.984425,1.07338,0.604674,-0.0249819,0.0383013,-0.240767,0.0098811,0.9,-0.6,0,11854,48.814,25.396,12396.8
171352898,0.634769,2.223,93.2663,-0.0421589,0.00699568,0.984582,1.09873,0.597446,-0.0351857,-0.0105912,-0.231931,-0.0573697,0.9,-0.6,0,11854,48.814,25.396,12396.8
171453214,0.634769,2.223,93.2597,-0.0369917,0.00957993,0.984682,1.12227,0.589465,-0.0171527,-0.027522,-0.195092,0.206639,0.9,-0.6,0,11854,48.814,25.396,12396.8
171553504,0.634769,2.223,93.26,-0.0319723,0.0102761,0.985017,1.13222,0.586438,-0.00726482,-0.0535187,-0.130407,0.0447186,0.9,-0.6,0,11854,48.814,25.396,12396.8
171653867,0.634769,2.223,93.2633,-0.0285255,0.0110194,0.985212,1.14101,0.578065,-0.00157151,-0.129636,-0.146026,-0.132424,0.9,-0.6,0,11854,48.814,25.396,12396.8
171754272,0.634769,2.223,93.265,-0.0253463,0.0116519,0.985592,1.13795,0.576048,-0.00890932,-0.113354,-0.00511792,-0.0420909,2.1,2.6,0,11854,48.814,25.396,12396.8
171854632,0.634769,2.223,93.2666,-0.0134515,0.00923031,0.984326,1.13859,0.575484,0.00675309,-0.143891,-0.0508217,0.297595,2.1,2.6,0,11854,48.78,25.079,12233.5
171955003,0.634769,2.223,93.2745,0.138925,-0.0444938,0.981901,1.10948,0.602787,0.0550792,0.120728,0.650951,0.0198461,2.1,2.6,0,11854,48.78,25.079,12233.5
172055345,0.634769,2.223,93.2851,0.290737,-0.0982904,0.971417,0.953679,0.800283,0.00950247,0.765076,2.60028,0.0482728,2.1,2.6,0,11854,48.78,25.079,12233.5
172155660,0.634769,2.223,93.291,0.378808,-0.130426,0.960912,0.725384,1.10437,-0.0378666,1.17767,3.45976,1.21177,2.1,2.6,0,11854,48.78,25.079,12233.5
172256059,0.634769,2.223,93.2933,0.419713,-0.144813,0.955809,0.441299,1.48601,-0.036301,1.40319,4.04847,1.85419,2.1,2.6,0,11854,48.78,25.079,12233.5
172356409,0.634769,2.223,93.2928,0.401776,-0.137363,0.959567,0.139789,1.89501,-0.0337547,1.49007,4.10798,2.20924,2.1,2.6,0,11854,48.78,25.079,12233.5
172456765,0.634769,2.223,93.2932,0.340976,-0.11436,0.967964,-0.139766,2.26259,-0.00469748,1.29044,3.80271,1.6281,2.1,2.6,0,11854,48.78,25.079,12233.5
172557135,0.634769,2.223,93.2891,0.266254,-0.0907849,0.974631,-0.362751,2.5472,0.00714778,0.966905,3.05014,0.922558,2.1,2.6,0,11854,48.78,25.079,12233.5
172657536,0.634769,2.223,93.2948,0.203784,-0.0720863,0.978907,-0.531213,2.7676,0.0133549,0.740945,2.31293,0.423403,2.1,2.6,0,11854,48.78,25.079,12233.5
172757925,0.634769,2.223,93.3105,0.154875,-0.055852,0.981068,-0.650793,2.93014,0.0134178,0.59702,1.62888,0.283541,2.1,2.6,0,11854,48.78,25.079,12233.5
172858245,0.634769,2.223,93.3234,0.117342,-0.0424878,0.983173,-0.744684,3.05723,0.0137894,0.422447,1.2584,-0.0404235,2.1,2.6,0,11854,48.78,25.079,12233.5
172958665,0.634769,2.223,93.3338,0.0894127,-0.0298137,0.984481,-0.816731,3.15877,0.00755398,0.313835,0.917891,-0.00725931,2.1,2.6,0,11854,48.78,25.079,12233.5
173059070,0.634769,2.223,93.3445,0.0695669,-0.0200864,0.985075,-0.88022,3.2299,-0.00351624,0.106684,0.720215,-0.338485,2.1,2.6,0,11854,48.78,25.079,12233.5
173160946,0.634769,2.223,93.3546,0.0521713,-0.0142695,0.985504,-0.929842,3.27603,-0.0138843,0.0231642,0.543557,0.0439042,2.1,2.6,0,11854,48.78,25.079,12233.5
173261298,0.634769,2.223,93.3627,0.0419096,-0.0112057,0.985493,-0.968256,3.31273,-0.0166777,0.0483789,0.372317,-0.248368,2.1,2.6,0,11854,48.78,25.079,12233.5
173361662,0.634769,2.223,93.3615,0.0333474,-0.0118447,0.98554,-0.98993,3.33023,-0.0317387,0.00208029,0.186309,-0.368011,2.1,2.6,0,11854,48.78,25.079,12233.5
173462026,0.634769,2.223,93.363,0.0284922,-0.010031,0.985037,-1.00809,3.34486,-0.0358833,-0.00290671,0.186897,-0.0944907,2.1,2.6,0,11854,48.738,25.873,12610
173562421,0.634769,2.223,93.3598,0.0258205,-0.0113359,0.984712,-1.02235,3.3516,-0.0485974,-0.000371218,0.138728,-0.0674389,2.1,2.6,0,11854,48.738,25.873,12610
173662762,0.634769,2.223,93.3572,0.0214794,-0.0117425,0.984809,-1.04453,3.35148,-0.0475933,-0.111098,0.172634,-0.0358876,2.1,2.6,0,11854,48.738,25.873,12610
173763158,0.634769,2.223,93.3525,0.0198557,-0.0125613,0.984789,-1.04836,3.34855,-0.045857,-0.077494,0.0637621,0.207257,3.4,1,0,11854,48.738,25.873,12610
173863533,0.634769,2.223,93.3458,0.0103335,-0.0228475,0.983925,-1.05328,3.34906,-0.0397979,-0.01169,0.0807779,0.095465,3.4,1,0,11854,48.738,25.873,12610
173963886,0.634769,2.223,93.3374,-0.102406,-0.116211,0.990308,-1.04196,3.34709,-0.0134725,0.203612,-0.24794,0.168891,3.4,1,0,11854,48.738,25.873,12610
174064287,0.634769,2.223,93.3327,-0.201852,-0.184671,1.00358,-0.832388,3.36723,-0.0376687,1.33711,-1.69344,0.116325,3.4,1,0,11854,48.738,25.873,12610
174164638,0.634769,2.223,93.326,-0.24149,-0.214614,1.00915,-0.526564,3.38876,-0.0696821,1.8174,-2.17079,1.07105,3.4,1,0,11854,48.738,25.873,12610
174264988,0.634769,2.223,93.3136,-0.231573,-0.207722,1.0058,-0.178651,3.4118,-0.0630958,1.8739,-2.43732,1.27846,3.4,1,0,11854,48.738,25.873,12610
174365323,0.634769,2.223,93.3037,-0.191639,-0.182077,0.998767,0.133162,3.43732,-0.0427432,1.71408,-2.16842,0.963579,3.4,1,0,11854,48.738,25.873,12610
174465659,0.634769,2.223,93.296,-0.143224,-0.150247,0.992666,0.383053,3.45838,-0.0367526,1.39109,-1.70014,0.72683,3.4,1,0,11854,48.757,26.434,12888.4
174565974,0.634769,2.223,93.2936,-0.101837,-0.123047,0.989325,0.572057,3.48112,-0.03006,1.11276,-1.24618,0.365092,3.4,1,0,11854,48.757,26.434,12888.4
174666382,0.634769,2.223,93.2939,-0.0715161,-0.101364,0.987723,0.711606,3.50527,-0.0126322,0.850099,-0.828859,0.280075,3.4,1,0,11854,48.757,26.434,12888.4
174766697,0.634769,2.223,93.3046,-0.0515019,-0.0849752,0.986925,0.812753,3.52986,-0.0143537,0.626926,-0.522662,0.0636252,3.4,1,0,11854,48.757,26.434,12888.4
174867046,0.634769,2.223,93.3152,-0.0377057,-0.0727421,0.986586,0.884639,3.54815,-0.00950539,0.383151,-0.350557,0.0806915,3.4,1,0,11854,48.757,26.434,12888.4
174967357,0.634769,2.223,93.3286,-0.0299818,-0.0631126,0.98641,0.936427,3.57306,-0.0040202,0.337734,-0.194174,-0.27135,3.4,1,0,11854,48.757,26.434,12888.4
175067660,0.634769,2.223,93.3347,-0.0261792,-0.055909,0.986312,0.976373,3.59145,-0.0131378,0.227412,-0.189637,0.137846,3.4,1,0,11854,48.757,26.434,12888.4
175168048,0.634769,2.223,93.3408,-0.0219301,-0.0488308,0.98586,1.02389,3.60998,-0.0172783,0.256481,-0.202471,-0.101191,3.4,1,0,11854,48.757,26.434,12888.4
175270657,0.634769,2.223,93.3431,-0.01895,-0.0437914,0.985851,1.05838,3.61589,-0.0130584,0.129053,-0.18007,-0.0290255,3.4,1,0,11854,48.757,26.434,12888.4
175376491,0.634769,2.223,93.3431,-0.015034,-0.0396267,0.98584,1.07976,3.62255,-0.0271733,0.0706313,-0.0870765,-0.221521,3.4,1,0,11854,48.757,26.434,12888.4
175476867,0.634769,2.223,93.3423,-0.0129952,-0.0368311,0.985385,1.0946,3.62943,-0.0285762,0.0805686,-0.0914755,0.0580831,3.4,1,0,11854,48.778,23.903,11659.4
175577230,0.634769,2.223,93.3409,-0.0119907,-0.0347894,0.985306,1.09966,3.62943,-0.0270131,-0.0147744,-0.0484636,-0.194118,3.4,1,0,11854,48.778,23.903,11659.4
175677576,0.634769,2.223,93.3417,-0.0131777,-0.0336153,0.985714,1.10608,3.6314,-0.0367844,0.00928098,-0.0532368,0.110012,3.4,1,0,11854,48.778,23.903,11659.4
175777971,0.634769,2.223,93.3379,-0.0121108,-0.0328339,0.986031,1.10363,3.62921,-0.0276582,-0.0743824,-0.0322138,-0.0728133,-4.88762,-3.19005,0,11854,48.778,23.903,11659.4
175878323,0.634769,2.223,93.3365,-0.0196011,-0.00828281,0.985022,1.111,3.63452,-0.0331655,0.0708711,-0.0790974,0.210526,-5.01292,-3.24317,0,11854,48.778,23.903,11659.4
175978679,0.634769,2.223,93.3366,-0.0564499,0.12578,0.981095,1.10743,3.59641,0.00351773,-0.714266,-0.306436,-0.0445717,-5.08795,-3.27957,0,11854,48.778,23.903,11659.4
176079007,0.634769,2.223,93.3382,-0.0875308,0.220897,0.974421,1.04376,3.40596,-0.0232654,-1.99455,-0.621401,0.209941,-5.10269,-3.30523,0,11854,48.778,23.903,11659.4
176179416,0.634769,2.223,93.3303,-0.107632,0.285144,0.968324,0.959073,3.13125,-0.0454324,-2.71357,-0.83575,0.75229,-5.11154,-3.32264,0,11854,48.778,23.903,11659.4
176279773,0.634769,2.223,93.3297,-0.118166,0.317589,0.96415,0.85287,2.79733,-0.0542165,-3.26307,-0.921596,0.997579,-5.1418,-3.3518,0,11854,48.778,23.903,11659.4
176380125,0.634769,2.223,93.3435,-0.119846,0.323098,0.963558,0.746044,2.44703,-0.0563618,-3.31238,-1.00333,1.16193,-5.21657,-3.3831,0,11854,48.778,23.903,11659.4
176480467,0.634769,2.223,93.348,-0.119086,0.311227,0.96535,0.638789,2.10006,-0.0575505,-3.27765,-1.02777,0.948955,-5.31213,-3.41887,0,11854,48.753,25.836,12595.8
176580807,0.634769,2.223,93.3374,-0.11282,0.287276,0.96817,0.531062,1.76817,-0.0548004,-3.1188,-0.900893,1.03093,-5.42482,-3.45488,0,11854,48.753,25.836,12595.8
176681158,0.634769,2.223,93.3308,-0.104527,0.258313,0.971437,0.438261,1.46651,-0.0419776,-2.75102,-0.841115,0.954676,-5.52213,-3.48481,0,11854,48.753,25.836,12595.8
176781564,0.634769,2.223,93.3325,-0.0969397,0.225665,0.974551,0.358415,1.20033,-0.0418187,-2.45432,-0.798061,0.710418,-5.61277,-3.51059,0,11854,48.753,25.836,12595.8
176881940,0.634769,2.223,93.3245,-0.0940867,0.20239,0.97527,0.294836,0.965433,-0.0384685,-2.14076,-0.758534,0.553166,-5.65877,-3.53269,0,11854,48.753,25.836,12595.8
176983421,0.634769,2.223,93.3129,-0.135482,0.242437,0.968287,0.247736,0.752426,-0.0113238,-2.02938,-0.812872,0.506282,-5.59707,-3.54622,0,11854,48.753,25.836,12595.8
177087885,0.634769,2.223,93.3047,-0.177912,0.280659,0.961289,0.216159,0.476909,-0.0441085,-2.3297,-1.27584,0.814095,-5.51623,-3.54867,0,11854,48.753,25.836,12595.8
177188279,0.634769,2.223,93.2986,-0.20422,0.306546,0.955859,0.192798,0.134716,-0.0478079,-2.72875,-1.54902,1.29259,-5.45525,-3.54891,0,11854,48.753,25.836,12595.8
177288631,0.634769,2.223,93.2908,-0.217237,0.320363,0.953042,0.174029,-0.245156,-0.040119,-2.99525,-1.73327,1.33147,-5.40912,-3.53553,0,11854,48.753,25.836,12595.8
177388941,0.634769,2.223,93.285,-0.219727,0.325351,0.952386,0.159523,-0.626954,-0.0332959,-2.92476,-1.76718,1.58631,-5.38143,-3.51659,0,11854,48.753,25.836,12595.8
177489231,0.634769,2.223,93.28,-0.215989,0.324262,0.952808,0.148679,-1.01114,-0.0247906,-2.98308,-1.81515,1.34882,-5.35674,-3.48826,0,11854,48.803,23.599,11517
177589573,0.634769,2.223,93.2726,-0.210391,0.322155,0.953326,0.137695,-1.37753,-0.02636,-2.91471,-1.70985,1.33256,-5.32713,-3.45709,0,11854,48.803,23.599,11517
177689905,0.634769,2.223,93.2655,-0.205327,0.320749,0.953779,0.122576,-1.73567,-0.0224809,-2.81202,-1.61453,1.40042,-5.28548,-3.41243,0,11854,48.803,23.599,11517
177790292,0.634769,2.223,93.2609,-0.201562,0.318968,0.954338,0.117103,-2.09104,-0.0157965,-2.74859,-1.65624,1.37756,-5.23958,-3.36722,0,11854,48.803,23.599,11517
177890656,0.634769,2.223,93.2585,-0.195306,0.316828,0.955268,0.0935652,-2.49918,-0.00215535,-2.70228,-1.44858,1.2682,-5.17974,-3.30294,0,11854,48.803,23.599,11517
177992085,0.634769,2.223,93.2524,-0.190494,0.314954,0.956038,0.0691127,-2.82069,-0.00639877,-2.67984,-1.38798,1.03352,-5.11268,-3.24041,0,11854,48.803,23.599,11517
178095163,0.634769,2.223,93.2534,-0.185384,0.313083,0.956493,0.0462447,-3.13791,0.00528369,-2.61766,-1.35252,1.07132,-5.03614,-3.17074,0,11854,48.803,23.599,11517
178195581,0.634769,2.223,93.2611,-0.18071,0.313422,0.956557,0.0175668,-3.44221,0.00329609,-2.57501,-1.25643,1.16817,-4.94582,-3.09963,0,11854,48.803,23.599,11517
178295929,0.634769,2.223,93.27,-0.179088,0.314217,0.956285,-0.013947,-3.73675,0.00795148,-2.52987,-1.18622,1.08988,-4.84714,-3.02242,0,11854,48.803,23.599,11517
178396336,0.634769,2.223,93.2782,-0.177222,0.314653,0.956773,-0.0430198,-4.02691,0.0112714,-2.51723,-1.16234,0.996214,-4.74217,-2.94042,0,11854,48.803,23.599,11517
178496648,0.634769,2.223,93.287,-0.174881,0.31462,0.957062,-0.0768851,-4.30728,0.00919095,-2.45971,-1.1261,0.929481,-4.6322,-2.85469,0,11854,48.803,23.599,11517
178597023,0.634769,2.223,93.3001,-0.161303,0.292837,0.961456,-0.11247,-4.58767,-0.000839204,-2.50629,-1.1072,0.835049,-4.5547,-2.7672,0,11854,48.783,25.529,12453.8
178697350,0.634769,2.223,93.307,-0.134664,0.248701,0.96839,-0.145211,-4.83102,0.0123994,-2.1653,-0.969207,0.728987,-4.50188,-2.67863,0,11854,48.783,25.529,12453.8
178797750,0.634769,2.223,93.3144,-0.10601,0.2018,0.974471,-0.170138,-4.99718,0.0227842,-1.52967,-0.574542,0.520137,-4.43342,-2.59104,0,11854,48.783,25.529,12453.8
178898117,0.634769,2.223,93.3232,-0.081783,0.159346,0.978657,-0.195498,-5.09854,0.0185531,-1.08796,-0.310143,0.0207952,-4.3281,-2.49336,0,11854,48.783,25.529,12453.8
178998469,0.634769,2.223,93.3287,-0.0576407,0.116813,0.981018,-0.221704,-5.16159,0.0206159,-0.741095,-0.098187,-0.00497275,-4.21556,-2.40683,0,11854,48.783,25.529,12453.8
179098823,0.634769,2.223,93.332,-0.0336387,0.0772366,0.983303,-0.238335,-5.17317,0.00927095,-0.273262,0.112635,-0.0328813,-4.08206,-2.30954,0,11854,48.783,25.529,12453.8
179199161,0.634769,2.223,93.3313,-0.0129127,0.0461192,0.984668,-0.256618,-5.14608,0.00389175,0.0054019,0.310668,-0.0997803,-3.94063,-2.21556,0,11854,48.783,25.529,12453.8
179299505,0.634769,2.223,93.3263,0.00200699,0.0213656,0.984972,-0.280511,-5.07363,-0.00142848,0.30193,0.578192,0.0580882,-3.80139,-2.12945,0,11854,48.783,25.529,12453.8
179399848,0.634769,2.223,93.3169,0.0113109,0.00117659,0.98536,-0.298349,-4.98472,-0.00979691,0.455653,0.592915,-0.0756765,-3.65536,-2.04075,0,11854,48.783,25.529,12453.8
179500278,0.634769,2.223,93.3009,0.0171289,-0.0171781,0.985386,-0.311641,-4.8756,-0.0364786,0.601904,0.622989,-0.116913,-3.52136,-1.96075,0,11854,48.783,25.529,12453.8
179600628,0.634769,2.223,93.2815,0.0189273,-0.0344545,0.986174,-0.320408,-4.74557,-0.0467527,0.779336,0.673709,0.330509,-3.38379,-1.87647,0,11854,48.621,28.144,13683.9
179700964,0.634769,2.223,93.2646,0.0225914,-0.0454907,0.986721,-0.317957,-4.60315,-0.0395758,0.981079,0.711514,0.373508,-3.25959,-1.80177,0,11854,48.621,28.144,13683.9
179801370,0.634769,2.223,93.2515,0.0229536,-0.0503,0.986598,-0.316745,-4.44446,-0.0280158,1.09732,0.762477,0.338856,-3.12866,-1.72765,0,11854,48.621,28.144,13683.9
179901728,0.634769,2.223,93.2464,0.0142915,-0.0433973,0.987283,-0.316058,-4.28585,-0.039137,1.08112,0.793038,-0.118025,-3.01871,-1.6621,0,11854,48.621,28.144,13683.9
180002081,0.634769,2.223,93.2374,0.00960901,-0.0413845,0.987968,-0.304082,-4.1408,-0.0402813,1.10395,0.585627,0.233192,-2.90546,-1.59561,0,11854,48.621,28.144,13683.9
180102442,0.634769,2.223,93.2333,0.00683764,-0.039178,0.988058,-0.288092,-4.00755,-0.0286369,0.990878,0.503861,0.111277,-2.80626,-1.53859,0,11854,48.621,28.144,13683.9
180202749,0.634769,2.223,93.2392,0.00776677,-0.0362399,0.987052,-0.277153,-3.87177,-0.0188027,0.945262,0.589913,0.197797,-2.69811,-1.48066,0,11854,48.621,28.144,13683.9
180303070,0.634769,2.223,93.2448,0.0127082,-0.0323372,0.986657,-0.272119,-3.74755,-0.0189521,0.854531,0.593264,-0.0241432,-2.60429,-1.42678,0,11854,48.621,28.144,13683.9
180405800,0.634769,2.223,93.2446,0.0126441,-0.0278485,0.986139,-0.272462,-3.61281,-0.00542044,0.946716,0.59742,0.204685,-2.50533,-1.37117,0,11854,48.621,28.144,13683.9
180507465,0.634769,2.223,93.2495,0.0113323,-0.0216699,0.986247,-0.265852,-3.48963,-0.00520484,0.877488,0.606711,-0.0390248,-2.41635,-1.3181,0,11854,48.621,28.144,13683.9
180607837,0.634769,2.223,93.2535,0.0111061,-0.0179461,0.986,-0.257847,-3.37649,-0.00764168,0.837628,0.512354,0.0795579,-2.32195,-1.26438,0,11854,48.667,26.276,12787.7
180708243,0.634769,2.223,93.2618,0.00973036,-0.0145586,0.985495,-0.260114,-3.26624,-0.00706799,0.761609,0.550377,-0.0700588,-2.23693,-1.21599,0,11854,48.667,26.276,12787.7
180808650,0.634769,2.223,93.2714,0.0081835,-0.0154488,0.985684,-0.260669,-3.15991,-0.0125088,0.784733,0.587744,0.14163,-2.15161,-1.16668,0,11854,48.667,26.276,12787.7
180909002,0.634769,2.223,93.2818,0.00590244,-0.0188696,0.985574,-0.262614,-3.05958,-0.0072345,0.706452,0.507338,-0.0373406,-1.98441,-1.07459,0,11854,48.667,26.276,12787.7
181010729,0.634769,2.223,93.2863,0.00246402,-0.022017,0.985811,-0.258037,-2.95959,-0.00692346,0.781347,0.449676,-0.059622,-1.90382,-1.03025,0,11854,48.667,26.276,12787.7
181116556,0.634769,2.223,93.2921,0.0072667,-0.0346094,0.984679,-0.246004,-2.84052,-0.00362715,0.81733,0.461325,-0.0295076,-1.82244,-0.988655,0,11854,48.667,26.276,12787.7
181216967,0.634769,2.223,93.2979,0.00683467,-0.0344493,0.985241,-0.23199,-2.73247,-0.00952479,0.847127,0.465964,0.00708686,-1.74622,-0.945139,0,11854,48.667,26.276,12787.7
181317336,0.634769,2.223,93.3088,0.00640573,-0.0338108,0.98511,-0.218186,-2.63302,-0.00440113,0.842161,0.432869,-0.029266,-1.67412,-0.905488,0,11854,48.667,26.276,12787.7
181417672,0.634769,2.223,93.3198,0.00883995,-0.0307778,0.98504,-0.208402,-2.53269,-0.0117892,0.878963,0.481695,-0.233347,-1.59525,-0.861144,0,11854,48.667,26.276,12787.7
181517958,0.634769,2.223,93.3209,0.00731038,-0.0288354,0.984925,-0.204852,-2.44124,-0.0189107,0.746838,0.481338,0.149706,-1.52607,-0.82263,0,11854,48.667,26.276,12787.7
181618326,0.634769,2.223,93.3184,0.00893566,-0.0287169,0.985143,-0.191418,-2.3508,-0.0299184,0.781209,0.42054,-0.172343,-1.45139,-0.780214,0,11810,48.772,23.532,11477
181718675,0.634769,2.223,93.3205,0.011409,-0.0302161,0.984753,-0.188823,-2.26565,-0.0237501,0.685284,0.387224,0.149663,-1.38371,-0.743288,0,11810,48.772,23.532,11477
181819078,0.634769,2.223,93.321,0.0117986,-0.0325248,0.985194,-0.18348,-2.17529,-0.0278845,0.73948,0.459613,0.0414897,-1.31847,-0.706616,0,11810,48.772,23.532,11477
181919447,0.634769,2.223,93.3155,0.0106886,-0.0341346,0.985193,-0.171779,-2.07147,-0.026952,0.894983,0.426037,0.0467362,-1.25662,-0.672942,0,11810,48.772,23.532,11477
182019798,0.634769,2.223,93.3155,0.011072,-0.032573,0.985335,-0.167044,-1.98907,-0.0316986,0.699453,0.399246,-0.0637948,-1.19705,-0.641037,0,11810,48.772,23.532,11477
182120163,0.634769,2.223,93.3101,0.00915127,-0.0329779,0.985605,-0.162004,-1.902,-0.0351306,0.757188,0.458435,0.063669,-1.14039,-0.610591,0,11810,48.772,23.532,11477
182220524,0.634769,2.223,93.3062,0.00683068,-0.0315614,0.985511,-0.147949,-1.81356,-0.0313304,0.775753,0.353455,0.177655,-1.08445,-0.581126,0,11810,48.772,23.532,11477
182320867,0.634769,2.223,93.3049,0.00591436,-0.0263953,0.986053,-0.134834,-1.72926,-0.0274194,0.74263,0.366168,0.0623303,-1.03227,-0.551944,0,11810,48.772,23.532,11477
182421220,0.634769,2.223,93.3004,0.00318217,-0.0242825,0.985533,-0.128138,-1.65281,-0.028735,0.723683,0.393608,-0.0368796,-0.981527,-0.52495,0,11810,48.772,23.532,11477
182521549,0.634769,2.223,93.3004,0.00274827,-0.0218892,0.985419,-0.120123,-1.57664,-0.0209175,0.6762,0.386599,0.103056,-0.934569,-0.499279,0,11810,48.772,23.532,11477
182621927,0.634769,2.223,93.3025,0.00195081,-0.0209402,0.985029,-0.119442,-1.50725,-0.0198852,0.616981,0.359485,0.0357302,-0.888456,-0.474747,0,11766,48.794,23.76,11593.5
182722280,0.634769,2.223,93.3035,0.00348311,-0.0194733,0.984517,-0.114772,-1.44217,-0.0276491,0.601878,0.291938,0.0347084,-0.844649,-0.451598,0,11766,48.794,23.76,11593.5
182822673,0.634769,2.223,93.3056,0.00438852,-0.0183695,0.984623,-0.121887,-1.37758,-0.0205801,0.50849,0.425453,0.0796362,-0.802723,-0.429687,0,11766,48.794,23.76,11593.5
182923060,0.634769,2.223,93.3075,0.0040391,-0.0192631,0.984853,-0.124166,-1.31258,-0.0210923,0.571819,0.378417,0.0317146,-0.76524,-0.410288,0,11766,48.794,23.76,11593.5
183023427,0.634769,2.223,93.3087,0.00169681,-0.0180914,0.984532,-0.130049,-1.24806,-0.0231441,0.54399,0.411014,-0.0406153,-0.724438,-0.389889,0,11766,48.794,23.76,11593.5
183123764,0.634769,2.223,93.3119,-0.00264498,-0.0181963,0.984559,-0.136922,-1.18572,-0.0159912,0.50261,0.369027,0.0150843,-0.68783,-0.371194,0,11766,48.794,23.76,11593.5
183224146,0.634769,2.223,93.3116,-0.00649132,-0.0181209,0.984854,-0.133372,-1.12565,-0.0169646,0.561847,0.27426,0.0258406,-0.652531,-0.354092,0,11766,48.794,23.76,11593.5
183325388,0.634769,2.223,93.3132,-0.010327,-0.0167756,0.984699,-0.131917,-1.07049,-0.0138054,0.496442,0.28511,-0.0152551,-0.61958,-0.338614,0,11766,48.794,23.76,11593.5
183430586,0.634769,2.223,93.3147,-0.0134065,-0.0170153,0.984852,-0.134035,-1.02391,-0.0179494,0.336531,0.231016,-0.0578766,-0.58806,-0.323538,0,11766,48.794,23.76,11593.5
183530941,0.634769,2.223,93.3211,-0.0138173,-0.0180924,0.985275,-0.120415,-0.982185,-0.0232874,0.44172,0.143702,-0.0539417,-0.55833,-0.3087,0,11766,48.794,23.76,11593.5
183631351,0.634769,2.223,93.3232,-0.014902,-0.017084,0.985034,-0.106877,-0.935511,-0.022773,0.45098,0.130394,0.119449,-0.530193,-0.294369,0,11766,48.773,24.135,11771.4
183731729,0.634769,2.223,93.3238,-0.013533,-0.017075,0.984834,-0.096863,-0.884823,-0.0238566,0.514021,0.233135,-0.0799195,-0.503936,-0.280598,0,11766,48.773,24.135,11771.4
183832174,0.634769,2.223,93.3225,-0.0131521,-0.016695,0.9847,-0.083973,-0.839878,-0.0264946,0.456044,0.149326,-0.0331831,-0.479962,-0.266128,0,11766,48.773,24.135,11771.4
183932511,0.634769,2.223,93.3278,-0.0118185,-0.0158454,0.98471,-0.06955,-0.797671,-0.026802,0.465377,0.162006,0.0118059,-0.457549,-0.25221,0,11766,48.773,24.135,11771.4
184032859,0.634769,2.223,93.3348,-0.0104429,-0.0128496,0.984533,-0.0545189,-0.751776,-0.0207772,0.451497,0.169751,0.0882792,-0.437096,-0.237651,0,11766,48.773,24.135,11771.4
184133210,0.634769,2.223,93.3368,-0.00921947,-0.00968939,0.984698,-0.0380011,-0.719234,-0.0159623,0.325488,0.0966762,-0.278853,-0.417987,-0.224114,0,11766,48.773,24.135,11771.4
184233569,0.634769,2.223,93.3423,-0.00679418,-0.00926891,0.98484,-0.0346536,-0.689982,-0.0241956,0.283089,0.169328,-0.0309489,-0.400519,-0.209276,0,11766,48.773,24.135,11771.4
184333933,0.634769,2.223,93.3528,-0.00532807,-0.00825966,0.984916,-0.0248655,-0.651399,-0.0204253,0.358241,0.165426,-0.0644678,-0.384572,-0.196411,0,11766,48.773,24.135,11771.4
184434277,0.634769,2.223,93.3567,-0.00507405,-0.00638753,0.984916,-0.0269503,-0.614015,-0.0273919,0.304367,0.214632,-0.144456,-0.367775,-0.182707,0,11766,48.773,24.135,11771.4
184534667,0.634769,2.223,93.3519,-0.00558789,-0.00473269,0.984831,-0.0241122,-0.585241,-0.0329338,0.241207,0.154695,-0.0950361,-0.352337,-0.171538,0,11766,48.773,24.135,11771.4
184635067,0.634769,2.223,93.34,-0.00538178,-0.00474221,0.984969,-0.0268217,-0.556519,-0.0428952,0.223749,0.191416,-0.200272,-0.33833,-0.159863,0,11766,48.728,24.763,12066.5
184735395,0.634769,2.223,93.3303,-0.00641456,-0.00452733,0.984932,-0.0235805,-0.522811,-0.0410663,0.243219,0.17631,0.0802386,-0.325316,-0.149133,0,11766,48.728,24.763,12066.5
184836116,0.634769,2.223,93.318,-0.00557535,-0.00321055,0.985101,-0.0261801,-0.486252,-0.0427377,0.25046,0.183894,-0.109465,-0.312375,-0.139674,0,11766,48.728,24.763,12066.5
184937184,0.634769,2.223,93.3071,-0.00560751,-0.0010846,0.985182,-0.0287799,-0.450201,-0.0420435,0.263842,0.207699,0.0548538,3.3,2.4,0,11766,48.728,24.763,12066.5
185037669,0.634769,2.223,93.3017,-0.00882909,-0.000449839,0.985397,-0.0327469,-0.418828,-0.0384419,0.200547,0.229954,0.167984,3.3,2.4,0,11766,48.728,24.763,12066.5
185137968,0.634769,2.223,93.3,-0.00626188,-0.0111214,0.985579,-0.0416629,-0.391137,-0.0303479,0.23049,0.189563,-0.0477667,3.3,2.4,0,11766,48.728,24.763,12066.5
185238320,0.634769,2.223,93.3004,-0.00309851,-0.0182891,0.985719,-0.0376133,-0.34331,-0.0224208,0.429202,0.248576,0.23915,3.3,2.4,0,11766,48.728,24.763,12066.5
185338629,0.634769,2.223,93.3003,-0.000845982,-0.0223611,0.985979,-0.0281617,-0.298805,-0.016631,0.445793,0.168967,0.0919633,3.3,2.4,0,11766,48.728,24.763,12066.5
185438959,0.634769,2.223,93.2955,0.000139982,-0.024298,0.986059,-0.0251321,-0.244702,-0.0171742,0.42386,0.280145,0.0200624,3.3,2.4,0,11766,48.728,24.763,12066.5
185539374,0.634769,2.223,93.2927,-0.000233329,-0.0252023,0.98604,-0.0173399,-0.203401,-0.0205994,0.35834,0.184372,0.0401572,3.3,2.4,0,11766,48.728,24.763,12066.5
185639779,0.634769,2.223,93.2897,-0.00103677,-0.024933,0.985965,-0.0144522,-0.156318,-0.0158657,0.395598,0.241189,0.145249,3.3,2.4,0,11766,48.728,24.763,12066.5
185740136,0.634769,2.223,93.2851,-0.00256385,-0.0222877,0.985867,-0.0113952,-0.109198,-0.0118728,0.380958,0.21291,-0.0491737,3.3,2.4,0,11766,48.741,24.489,11936.2
185840486,0.634769,2.223,93.2814,-0.00298929,-0.0191841,0.985699,-0.00129505,-0.0651579,-0.00653335,0.408551,0.186057,0.0271526,3.3,2.4,0,11766,48.741,24.489,11936.2
185940836,0.634769,2.223,93.2749,-0.0051703,-0.0146713,0.985663,0.00350678,-0.0301006,-0.0160861,0.305808,0.171088,0.0385837,3.3,2.4,0,11766,48.741,24.489,11936.2
186041265,0.634769,2.223,93.268,-0.00573823,-0.0110722,0.986188,0.0137295,0.00436817,-0.0180902,0.312808,0.10186,0.00386712,3.3,2.4,0,11766,48.741,24.489,11936.2
186141643,0.634769,2.223,93.2655,0.0606288,-0.108384,0.983809,0.021504,0.0173069,0.0134805,0.14536,0.0444152,0.46539,3.3,2.4,0,11766,48.741,24.489,11936.2
186241986,0.634769,2.223,93.2644,0.153905,-0.220465,0.968739,0.0305171,0.217808,0.0107954,1.85882,1.15766,0.00694424,3.3,2.4,0,11766,48.741,24.489,11936.2
186342339,0.634769,2.223,93.2549,0.218238,-0.292296,0.953767,0.0148976,0.537666,-0.0381409,2.54301,1.89563,0.940468,3.3,2.4,0,11766,48.741,24.489,11936.2
186442704,0.634769,2.223,93.2404,0.252839,-0.327336,0.944874,-0.00334334,0.960656,-0.0451429,3.07654,2.25062,1.75182,3.3,2.4,0,11766,48.741,24.489,11936.2
186543075,0.634769,2.223,93.2218,0.266717,-0.340596,0.941366,-0.0331689,1.42668,-0.0399354,3.2914,2.52572,2.05127,3.3,2.4,0,11766,48.741,24.489,11936.2
186643397,0.634769,2.223,93.2072,0.26569,-0.340822,0.942095,-0.0644525,1.91287,-0.0228062,3.36681,2.56903,2.15756,3.3,2.4,0,11766,48.741,24.489,11936.2
186743799,0.634769,2.223,93.195,0.253766,-0.328545,0.946196,-0.091321,2.38326,-0.0159573,3.36935,2.49815,1.86422,3.3,2.4,0,11766,48.738,24.356,11870.6
186844171,0.634769,2.223,93.1922,0.218501,-0.286889,0.957103,-0.119924,2.83455,0.00400785,3.0374,2.33895,1.96103,3.3,2.4,0,11766,48.738,24.356,11870.6
186946360,0.634769,2.223,93.1908,0.176847,-0.23882,0.967546,-0.150839,3.2079,0.0426318,2.46731,2.01398,1.38991,2.6,-3.5,0,11766,48.738,24.356,11870.6
187048203,0.634769,2.223,93.2012,0.12479,-0.191721,0.977076,-0.175481,3.4947,0.0556148,1.97538,1.58265,0.59264,2.6,-3.5,0,11766,48.738,24.356,11870.6
187148574,0.634769,2.223,93.2235,-0.0894104,-0.10879,0.997103,-0.181822,3.73036,0.109369,1.63127,1.00146,0.630151,2.6,-3.5,0,11766,48.738,24.356,11870.6
187248927,0.634769,2.223,93.2545,-0.300082,-0.0207322,0.989707,0.0211183,3.67823,0.093536,0.18248,-2.42013,-0.243714,2.6,-3.5,0,11766,48.738,24.356,11870.6
187349308,0.634769,2.223,93.2789,-0.410727,0.021797,0.975984,0.295295,3.47111,0.020486,-0.318204,-3.5676,1.03025,2.6,-3.5,0,11766,48.738,24.356,11870.6
187449607,0.634769,2.223,93.3021,-0.461173,0.044529,0.964672,0.626034,3.18338,0.0072378,-0.625666,-4.18849,1.66661,2.6,-3.5,0,11766,48.738,24.356,11870.6
187549817,0.634769,2.223,93.3248,-0.473137,0.0502068,0.960349,0.978087,2.85049,-0.00153989,-0.784234,-4.3536,2.13946,2.6,-3.5,0,11766,48.738,24.356,11870.6
187650104,0.634769,2.223,93.3419,-0.464331,0.0429735,0.95991,1.32062,2.51479,0.000196353,-0.778637,-4.32491,1.78415,2.6,-3.5,0,11766,48.738,24.356,11870.6
187750483,0.634769,2.223,93.325,-0.451001,0.0320598,0.962115,1.65389,2.19727,-0.0156029,-0.66809,-4.08467,1.89016,2.6,-3.5,0,11766,48.725,24.593,11982.9
187850864,0.634769,2.223,93.3113,-0.438939,0.0158561,0.966866,1.98028,1.89315,-0.0107495,-0.578493,-3.8015,1.98154,2.6,-3.5,0,11766,48.725,24.593,11982.9
187951255,0.634769,2.223,93.3071,-0.430669,-0.001984,0.972777,2.31356,1.6126,-0.0253518,-0.292344,-3.83415,1.59186,2.6,-3.5,0,11766,48.725,24.593,11982.9
188051555,0.634769,2.223,93.2918,-0.418916,-0.0208828,0.97935,2.65316,1.35762,-0.0323363,-0.154843,-3.66902,1.72807,2.6,-3.5,0,11766,48.725,24.593,11982.9
188151890,0.634769,2.223,93.2663,-0.379925,-0.0344814,0.984056,3.00008,1.12329,-0.0333356,0.00731328,-3.56084,1.658,2.6,-3.5,0,11766,48.725,24.593,11982.9
188252074,0.634769,2.223,93.2449,-0.321799,-0.0447514,0.986718,3.30814,0.931974,-0.0196855,0.193326,-3.01964,1.44262,2.6,-3.5,0,11766,48.725,24.593,11982.9
188352321,0.634769,2.223,93.2391,-0.264827,-0.049217,0.988116,3.5596,0.791922,-0.0069514,0.263506,-2.3726,0.966754,2.6,-3.5,0,11766,48.725,24.593,11982.9
188452547,0.634769,2.223,93.2291,-0.21491,-0.0495892,0.98774,3.75616,0.689927,-0.00663179,0.233318,-1.82191,0.515608,2.6,-3.5,0,11766,48.725,24.593,11982.9
188552739,0.634769,2.223,93.2225,-0.175084,-0.0453431,0.986547,3.91553,0.620183,0.00491991,0.273593,-1.33363,0.539838,2.6,-3.5,0,11766,48.725,24.593,11982.9
188652997,0.634769,2.223,93.2202,-0.145818,-0.0410633,0.985868,4.03737,0.571836,0.0163464,0.230041,-1.05423,0.340898,2.6,-3.5,0,11766,48.725,24.593,11982.9
188753399,0.63477,2.223,93.2262,-0.12591,-0.0388749,0.985453,4.13036,0.531765,0.0187787,0.142223,-0.797776,0.366871,2.6,-3.5,0,11766,48.675,27.493,13382.2
188853814,0.63477,2.223,93.2363,-0.112605,-0.0343652,0.985166,4.19978,0.509724,0.0240932,0.10711,-0.604422,0.049699,2.6,-3.5,0,11766,48.675,27.493,13382.2
188954258,0.63477,2.223,93.2438,-0.103216,-0.0316549,0.985145,4.25283,0.493194,0.0177973,0.107505,-0.439119,-0.0602422,3.4,-1.8,0,11766,48.675,27.493,13382.2
189058336,0.63477,2.223,93.248,-0.0644871,-0.0367634,0.982491,4.29948,0.487254,0.0224462,0.0731859,-0.419241,0.407799,3.4,-1.8,0,11766,48.675,27.493,13382.2
189158701,0.63477,2.223,93.2509,0.0742178,-0.0839443,0.976146,4.30733,0.512237,0.0736931,0.215235,0.346294,0.270082,3.4,-1.8,0,11766,48.675,27.493,13382.2
189259137,0.63477,2.223,93.2654,0.171621,-0.123502,0.972594,4.20232,0.679897,0.0592045,0.773865,1.89417,-0.452288,3.4,-1.8,0,11766,48.675,27.493,13382.2
189359536,0.63477,2.223,93.2688,0.202557,-0.140467,0.973536,4.0563,0.918156,0.00580388,1.11887,2.43835,0.49692,3.4,-1.8,0,11766,48.675,27.493,13382.2
189459918,0.63477,2.223,93.2603,0.185575,-0.13595,0.978164,3.90196,1.17644,0.00226551,1.10728,2.44105,0.84114,3.4,-1.8,0,11766,48.675,27.493,13382.2
189560418,0.63477,2.223,93.256,0.145535,-0.122492,0.983299,3.77193,1.41463,-0.00369104,1.18969,2.22762,0.138403,3.4,-1.8,0,11766,48.675,27.493,13382.2
189662047,0.63477,2.223,93.2474,0.0977022,-0.106139,0.985341,3.67499,1.60642,-0.0157082,0.942758,1.57907,0.243985,3.4,-1.8,0,11766,48.675,27.493,13382.2
189766836,0.63477,2.223,93.2304,0.0526013,-0.0869455,0.986808,3.59912,1.75488,-0.0210031,0.65522,1.14787,0.2216,3.4,-1.8,0,11722,48.508,28.163,13661.3
189867196,0.63477,2.223,93.2174,0.0166842,-0.0690844,0.986663,3.5476,1.86855,-0.0175383,0.360821,0.589455,0.312865,3.4,-1.8,0,11722,48.508,28.163,13661.3
189967546,0.63477,2.223,93.2243,-0.007193,-0.0559748,0.985829,3.51903,1.93417,-0.0085557,0.245322,0.325831,0.0739417,3.4,-1.8,0,11722,48.508,28.163,13661.3
190067899,0.63477,2.223,93.2229,-0.0231231,-0.0475115,0.985606,3.49853,1.98281,-0.00449996,0.17629,0.199177,0.104433,3.4,-1.8,0,11722,48.508,28.163,13661.3
190168331,0.63477,2.223,93.2171,-0.0338155,-0.0430046,0.985791,3.49247,2.01407,0.00742099,0.123564,0.0322906,0.343175,3.4,-1.8,0,11722,48.508,28.163,13661.3
190268688,0.63477,2.223,93.2208,-0.0397521,-0.0415085,0.986164,3.48986,2.04011,0.0196401,0.110603,-0.0479379,-0.0624595,3.4,-1.8,0,11722,48.508,28.163,13661.3
190369051,0.634771,2.223,93.2331,-0.042663,-0.0434495,0.985721,3.49129,2.0591,0.0298697,0.144314,-0.077798,-0.138527,3.4,-1.8,0,11722,48.508,28.163,13661.3
190469389,0.634771,2.223,93.245,-0.0457635,-0.0448324,0.986376,3.48857,2.07344,0.0228005,0.0812745,-0.0708356,-0.191315,3.4,-1.8,0,11722,48.508,28.163,13661.3
190569707,0.634771,2.223,93.2533,-0.0461107,-0.0429307,0.986043,3.49346,2.09371,0.0189752,0.13739,-0.0692597,-0.21172,3.4,-1.8,0,11722,48.508,28.163,13661.3
190670111,0.634771,2.223,93.2599,-0.0466593,-0.0383312,0.985677,3.50537,2.10433,0.0203444,0.0740543,-0.133695,-0.277064,3.4,-1.8,0,11722,48.508,28.163,13661.3
190770459,0.634771,2.223,93.2644,-0.0467562,-0.0369027,0.98537,3.51178,2.09537,0.0137504,-0.00677977,-0.223917,-0.138602,3.4,-1.8,0,11722,48.508,28.163,13661.3
190870849,0.634771,2.223,93.2647,-0.0442641,-0.0361834,0.985124,3.52252,2.09785,0.0113788,0.0419448,-0.1522,-0.184494,3.4,-1.8,0,11722,48.685,25.9,12609.4
190972631,0.634771,2.223,93.2575,-0.0437892,-0.0337099,0.985499,3.52732,2.09809,0.0168768,0.0103087,-0.0774304,0.0163205,3,2.7,0,11722,48.685,25.9,12609.4
191073779,0.634771,2.223,93.2575,-0.0152204,-0.0286046,0.982211,3.5374,2.09881,0.0190215,0.055117,-0.112778,0.188865,3,2.7,0,11722,48.685,25.9,12609.4
191174125,0.634771,2.223,93.2593,0.16356,-0.00160603,0.981951,3.50468,2.12375,0.0640468,-0.0399287,0.684599,0.310685,3,2.7,0,11722,48.685,25.9,12609.4
191274420,0.634771,2.223,93.2664,0.332055,0.0187055,0.987289,3.26501,2.23196,0.03192,-0.46327,2.87163,-0.0361145,3,2.7,0,11722,48.685,25.9,12609.4
191374834,0.634771,2.223,93.2681,0.429335,0.0291098,0.994482,2.8957,2.4094,-0.042585,-0.568844,3.91902,1.48115,3,2.7,0,11722,48.685,25.9,12609.4
191475201,0.634771,2.223,93.2612,0.458218,0.0342566,1.00012,2.43301,2.619,-0.0439674,-0.771357,4.45492,2.32034,3,2.7,0,11722,48.685,25.9,12609.4
191575567,0.634771,2.223,93.2583,0.4488,0.0295924,0.999807,1.95847,2.84257,-0.0361247,-0.661131,4.44811,2.48047,3,2.7,0,11722,48.685,25.9,12609.4
191675990,0.634771,2.223,93.2501,0.436639,0.019711,0.995838,1.50273,3.06002,-0.0242272,-0.650243,4.40977,2.11947,3,2.7,0,11722,48.685,25.9,12609.4
191776378,0.634771,2.223,93.2278,0.398162,0.00900328,0.992446,1.06961,3.27688,-0.0190721,-0.578175,4.22851,2.08094,3,2.7,0,11722,48.685,25.9,12609.4
191876743,0.634771,2.223,93.2097,0.332282,-0.00626002,0.987664,0.694285,3.46622,0.00109953,-0.45005,3.65895,1.53974,3,2.7,0,11722,48.72,23.796,11593.4
191977063,0.634771,2.223,93.2154,0.270447,-0.0219144,0.983776,0.387823,3.62448,0.00866567,-0.331537,3.04765,0.828957,3,2.7,0,11722,48.72,23.796,11593.4
192077412,0.634771,2.223,93.2218,0.21111,-0.0377882,0.980363,0.160248,3.77025,0.0111556,-0.0304018,2.4111,0.565271,3,2.7,0,11722,48.72,23.796,11593.4
192177781,0.634771,2.223,93.2286,0.163008,-0.0470658,0.979259,-0.00606871,3.89035,0.0162924,0.141811,1.77335,0.259085,3,2.7,0,11722,48.72,23.796,11593.4
192278141,0.634771,2.223,93.2409,0.130972,-0.0491479,0.979212,-0.120704,3.98383,0.0218069,0.164716,1.2953,0.197941,3,2.7,0,11722,48.72,23.796,11593.4
192378496,0.634771,2.223,93.254,0.107912,-0.0472089,0.979701,-0.218757,4.07392,0.0301413,0.25074,1.1549,0.163945,3,2.7,0,11722,48.72,23.796,11593.4
192478878,0.634771,2.223,93.268,0.0906558,-0.0418115,0.980229,-0.290451,4.13498,0.0331088,0.151015,0.854098,-0.0556696,3,2.7,0,11722,48.72,23.796,11593.4
192579239,0.634771,2.223,93.2761,0.0808523,-0.035947,0.981398,-0.34715,4.18965,0.0268286,0.14148,0.705009,0.0642994,3,2.7,0,11722,48.72,23.796,11593.4
192679620,0.634771,2.223,93.2846,0.0714318,-0.0319387,0.981307,-0.40181,4.22901,0.0197841,0.0325996,0.65151,-0.191293,3,2.7,0,11722,48.72,23.796,11593.4
192779967,0.634771,2.223,93.2905,0.0637111,-0.0284399,0.98181,-0.446021,4.26031,0.00906906,-0.0288406,0.551676,-0.154302,3,2.7,0,11722,48.72,23.796,11593.4
192880346,0.634771,2.223,93.2919,0.0558975,-0.0263119,0.981871,-0.484626,4.28732,0.000552006,0.040573,0.462306,0.009615,3,2.7,0,11722,48.722,23.796,11593.9
192980778,0.634771,2.223,93.2892,0.0486445,-0.0240852,0.98269,-0.510064,4.31096,0.00281721,0.0517883,0.402175,-0.0355655,-7.44395,0.768755,0,11722,48.722,23.796,11593.9
193081152,0.634771,2.223,93.2857,0.0333338,-0.0122974,0.982936,-0.532831,4.32046,-0.0102262,-0.0243302,0.293886,-0.257731,-7.56181,0.681967,0,11722,48.722,23.796,11593.9
193181580,0.634771,2.223,93.2794,-0.0719724,0.0947705,0.981115,-0.544231,4.32278,0.0291313,-0.197428,0.0773765,0.441604,-7.64519,0.569035,0,11722,48.722,23.796,11593.9
193282728,0.634771,2.223,93.2798,-0.170446,0.183179,0.970539,-0.517209,4.12084,0.0218984,-1.67864,-1.40034,0.0149622,-7.67121,0.395342,0,11722,48.722,23.796,11593.9
193388062,0.634771,2.223,93.2787,-0.232364,0.239215,0.95994,-0.44735,3.74576,-0.0295432,-2.32529,-2.15387,0.677723,-7.68948,0.22068,0,11722,48.722,23.796,11593.9
193488456,0.634771,2.223,93.2814,-0.269498,0.272103,0.952686,-0.365721,3.34989,-0.0438977,-2.67292,-2.57178,1.36221,-7.71961,0.0937396,0,11722,48.722,23.796,11593.9
193588808,0.634771,2.223,93.292,-0.277875,0.282397,0.951537,-0.283493,2.9176,-0.0464069,-2.87283,-2.68362,1.62049,-7.78123,0.0171945,0,11722,48.722,23.796,11593.9
193689173,0.634771,2.223,93.2969,-0.258941,0.276665,0.955184,-0.193832,2.49225,-0.0367403,-2.87656,-2.72493,1.22742,-7.86533,0.00201151,0,11722,48.722,23.796,11593.9
193789553,0.634771,2.223,93.2825,-0.223355,0.260116,0.960703,-0.136369,2.09464,-0.0335873,-2.71646,-2.25515,1.49692,-7.96456,0.00377662,0,11722,48.722,23.796,11593.9
193889913,0.634771,2.223,93.2695,-0.185534,0.237906,0.96613,-0.0953816,1.72727,-0.0161037,-2.56917,-1.97757,1.2352,-8.05651,0.0308576,0,11722,48.718,25.677,12509.3
193990336,0.634771,2.223,93.2702,-0.153016,0.210828,0.971127,-0.0760411,1.41667,-0.00975291,-2.27522,-1.53939,0.864841,-8.14605,0.0540088,0,11722,48.718,25.677,12509.3
194090657,0.634771,2.223,93.2644,-0.12147,0.188805,0.976161,-0.0587057,1.15612,-0.000300933,-1.90573,-1.27949,0.646233,-8.20492,0.0996908,0,11722,48.718,25.677,12509.3
194191106,0.634771,2.223,93.2551,-0.0661109,0.246844,0.981788,-0.0615036,0.930248,0.0184622,-1.91647,-0.881143,0.644171,-8.11922,0.142668,0,11722,48.718,25.677,12509.3
194291507,0.634771,2.223,93.2506,-0.0277068,0.307322,0.983348,-0.169628,0.670461,-0.0105742,-2.6952,-0.342957,0.651521,-7.98735,0.165679,0,11722,48.718,25.677,12509.3
194391898,0.634771,2.223,93.2527,-0.00214806,0.350204,0.983574,-0.334158,0.384814,-0.0102385,-3.09587,-0.0106936,1.07374,-7.87599,0.169486,0,11722,48.718,25.677,12509.3
194492297,0.634771,2.223,93.2551,0.00947957,0.372486,0.983271,-0.536594,0.0838256,-0.00700676,-3.3309,0.110595,1.3361,-7.80048,0.17333,0,11722,48.718,25.677,12509.3
194592652,0.634771,2.223,93.259,0.0126547,0.380696,0.982385,-0.749954,-0.223241,0.00102564,-3.33141,0.233557,1.50621,-7.76061,0.165132,0,11722,48.718,25.677,12509.3
194693007,0.634771,2.223,93.2595,0.0104792,0.380964,0.981467,-0.969596,-0.524822,0.00631828,-3.42234,0.229184,1.37621,-7.72966,0.154486,0,11722,48.718,25.677,12509.3
194793383,0.634771,2.223,93.2527,0.00705523,0.378882,0.981171,-1.17591,-0.813882,0.00793273,-3.3342,0.147277,1.10229,-7.69864,0.144646,0,11722,48.718,25.677,12509.3
194893717,0.634771,2.223,93.2517,0.00402412,0.375714,0.98107,-1.38827,-1.10446,0.0103758,-3.30803,0.169125,1.43478,-7.65637,0.129469,0,11722,48.655,25.858,12581.2
194994134,0.634771,2.223,93.2548,-0.00183541,0.371335,0.981088,-1.58946,-1.39271,0.0153546,-3.29155,0.102056,1.17239,-7.60759,0.114893,0,11722,48.655,25.858,12581.2
195094502,0.634771,2.223,93.2585,-0.00678206,0.367401,0.980881,-1.77485,-1.66705,0.0168154,-3.05874,-0.00683176,1.11704,-7.54299,0.0904284,0,11722,48.655,25.858,12581.2
195194846,0.634771,2.223,93.2625,-0.0135539,0.363772,0.980572,-1.95557,-1.93267,0.00965643,-3.05596,0.0143591,1.02426,-7.468,0.0682559,0,11722,48.655,25.858,12581.2
195295192,0.634771,2.223,93.2691,-0.0200596,0.361238,0.980127,-2.12618,-2.20629,0.0159777,-3.07979,-0.0849102,0.964144,-7.37694,0.0396332,0,11722,48.655,25.858,12581.2
195395558,0.634771,2.223,93.2741,-0.024229,0.360398,0.979921,-2.28309,-2.46391,0.0186679,-2.89795,-0.121967,0.924414,-7.27802,0.0190636,0,11722,48.655,25.858,12581.2
195495874,0.634771,2.223,93.2784,-0.0309509,0.359178,0.979425,-2.43798,-2.7294,0.00189453,-2.8868,-0.162464,1.02748,-7.15852,-0.00929617,0,11722,48.655,25.858,12581.2
195596292,0.634771,2.223,93.2791,-0.0372063,0.355183,0.979247,-2.58687,-2.98749,-0.000382315,-2.92357,-0.122095,0.821167,-7.04359,-0.029718,0,11722,48.655,25.858,12581.2
195696660,0.634771,2.223,93.2805,-0.0401653,0.349945,0.979229,-2.72814,-3.24482,0.00515667,-2.75996,-0.18776,1.06121,-6.92325,-0.0512425,0,11722,48.655,25.858,12581.2
195797045,0.634771,2.223,93.2874,-0.045038,0.344723,0.979374,-2.84944,-3.4879,0.00237646,-2.5705,-0.295619,0.950805,-6.79312,-0.0678045,0,11722,48.655,25.858,12581.2
195897435,0.634771,2.223,93.2933,-0.0516303,0.344275,0.979317,-2.95631,-3.73388,0.00512287,-2.53968,-0.366061,0.979108,-6.64409,-0.0864456,0,11722,48.655,25.858,12581.2
195997816,0.634771,2.223,93.2935,-0.0569983,0.340792,0.979235,-3.06898,-3.97815,0.0013721,-2.55674,-0.360246,0.76376,-6.49248,-0.101597,0,11722,48.655,25.858,12581.2
196098216,0.634771,2.223,93.2983,-0.0651162,0.340796,0.978551,-3.16858,-4.21337,0.0100126,-2.46586,-0.440151,0.860332,-6.32514,-0.117811,0,11722,48.655,25.858,12581.2
196198603,0.634771,2.223,93.3067,-0.0662712,0.326842,0.978276,-3.26143,-4.44715,0.0150438,-2.36712,-0.48003,0.924717,-6.17759,-0.128891,0,11722,48.655,25.858,12581.2
196298944,0.63477,2.223,93.3101,-0.0619806,0.280891,0.980438,-3.33905,-4.66947,0.0131908,-2.02487,-0.49221,1.09149,-6.08473,-0.122064,0,11722,48.655,25.858,12581.2
196399285,0.63477,2.223,93.3079,-0.0550479,0.226337,0.982448,-3.39224,-4.84166,0.0345097,-1.66192,-0.478851,0.338283,-5.97714,-0.115025,0,11722,48.655,25.858,12581.2
196499661,0.63477,2.223,93.3155,-0.0479819,0.172098,0.984483,-3.41666,-4.96288,0.0510366,-1.13512,-0.44707,0.248059,-5.84568,-0.103714,0,11722,48.633,25.785,12540
196600077,0.63477,2.223,93.3157,-0.0423858,0.122019,0.986026,-3.41871,-5.02978,0.0415535,-0.584687,-0.331697,-0.182929,-5.69191,-0.0955615,0,11722,48.633,25.785,12540
196700445,0.63477,2.223,93.3153,-0.0355703,0.0813477,0.986142,-3.39264,-5.0537,0.0265679,-0.128147,-0.321376,-0.116803,-5.50181,-0.0910231,0,11722,48.633,25.785,12540
196800804,0.63477,2.223,93.3092,-0.0316269,0.0450585,0.986822,-3.34738,-5.0355,-0.00256043,0.367112,-0.260293,0.201456,-5.3159,-0.0842293,0,11722,48.633,25.785,12540
196901109,0.63477,2.223,93.2979,-0.0274909,0.0140476,0.987035,-3.29086,-4.99331,6.61109e-05,0.535236,-0.178259,-0.263292,-5.11223,-0.0760993,0,11722,48.633,25.785,12540
197001473,0.63477,2.223,93.2754,-0.0231626,-0.00950762,0.987544,-3.21667,-4.92078,-0.0240056,0.874634,-0.160294,0.0678849,-4.9103,-0.0679786,0,11722,48.633,25.785,12540
197101835,0.63477,2.223,93.2467,-0.0179813,-0.0289395,0.987343,-3.13491,-4.83177,-0.0204531,1.07172,-0.1322,-0.0315199,-4.72232,-0.061893,0,11722,48.633,25.785,12540
197202220,0.63477,2.223,93.2279,-0.0118568,-0.0447931,0.986851,-3.04465,-4.71927,-0.0394852,1.26322,-0.104135,0.163228,-4.52959,-0.0584636,0,11722,48.633,25.785,12540
197302535,0.63477,2.223,93.2125,-0.00228667,-0.0575109,0.987088,-2.961,-4.59109,-0.035137,1.32073,0.0716042,0.493202,-4.35591,-0.051122,0,11722,48.633,25.785,12540
197402961,0.63477,2.223,93.1914,0.000399826,-0.0719884,0.985946,-2.88794,-4.45864,-0.0133248,1.29879,0.146209,0.352611,-4.18522,-0.0507081,0,11722,48.633,25.785,12540
197503770,0.63477,2.223,93.1779,0.00148271,-0.0778375,0.985817,-2.80131,-4.30128,-0.0239263,1.57052,0.171238,0.575674,-4.01949,-0.0468721,0,11722,48.515,27.703,13440.1
197604122,0.63477,2.223,93.1822,-0.000722845,-0.0739028,0.986065,-2.71254,-4.14227,0.00471077,1.5689,0.0911761,0.017201,-3.85996,-0.0427661,0,11722,48.515,27.703,13440.1
197704505,0.63477,2.223,93.1861,-0.00549773,-0.0682967,0.986371,-2.62491,-3.99085,-0.00532191,1.45708,0.0937021,0.28245,-3.57344,-0.0413994,0,11722,48.515,27.703,13440.1
197804849,0.63477,2.223,93.188,-0.00553137,-0.0752741,0.986078,-2.54644,-3.85089,0.028179,1.33539,0.130517,0.636274,-3.44086,-0.0455203,0,11722,48.515,27.703,13440.1
197905109,0.63477,2.223,93.2046,-0.0017249,-0.0934838,0.986268,-2.465,-3.69865,0.0304506,1.59331,0.172597,0.0595372,-3.29945,-0.0468874,0,11722,48.515,27.703,13440.1
198005430,0.63477,2.223,93.2148,-0.00363344,-0.0913854,0.98704,-2.38164,-3.5284,0.0393983,1.64926,0.20689,-0.102475,-3.17878,-0.0511704,0,11722,48.515,27.703,13440.1
198107603,0.63477,2.223,93.2201,-0.0116238,-0.0866834,0.987328,-2.28453,-3.3372,0.0247957,1.52246,0.124741,0.0877352,-3.05566,-0.0558956,0,11722,48.515,27.703,13440.1
198214275,0.63477,2.223,93.2252,-0.0230742,-0.0739433,0.987679,-2.2008,-3.19548,0.0155105,1.34922,-0.0282733,-0.0602842,-2.94507,-0.0648531,0,11722,48.515,27.703,13440.1
198319785,0.63477,2.223,93.2275,-0.0310523,-0.0631883,0.987627,-2.11589,-3.07254,-0.00281475,1.2697,-0.110672,-0.0846962,-2.83092,-0.0723382,0,11722,48.515,27.703,13440.1
198420120,0.63477,2.223,93.225,-0.0347689,-0.0505685,0.986708,-2.02984,-2.9553,-0.0148982,1.27695,-0.167169,0.0860926,-2.72518,-0.0839878,0,11722,48.515,27.703,13440.1
198520470,0.634769,2.223,93.2221,-0.0333027,-0.0460414,0.986197,-1.94462,-2.86581,0.000796734,1.08656,-0.250518,0.113924,-2.62272,-0.0905651,0,11677,48.686,25.764,12543.5
198620826,0.634769,2.223,93.2189,-0.0314937,-0.0416301,0.986358,-1.86503,-2.76958,-0.00787635,1.10753,-0.191707,0.0644399,-2.51238,-0.0970274,0,11677,48.686,25.764,12543.5
198721191,0.634769,2.223,93.2163,-0.0292081,-0.0409328,0.986184,-1.79877,-2.68942,0.000638138,0.953266,-0.164162,0.199187,-2.40666,-0.101568,0,11677,48.686,25.764,12543.5
198821555,0.634769,2.223,93.2129,-0.029788,-0.04256,0.986062,-1.73441,-2.60234,0.00694298,1.01506,-0.0861677,0.136884,-2.3049,-0.106465,0,11677,48.686,25.764,12543.5
198921900,0.634769,2.223,93.2121,-0.0295556,-0.0430633,0.986002,-1.66894,-2.51188,0.015157,1.08037,-0.109014,0.180229,-2.21137,-0.109393,0,11677,48.686,25.764,12543.5
199022306,0.634769,2.223,93.2191,-0.0290787,-0.0402145,0.985891,-1.59412,-2.42525,0.0252752,1.10069,-0.185348,0.0635414,-2.11242,-0.112298,0,11677,48.686,25.764,12543.5
199122576,0.634769,2.223,93.2237,-0.0262915,-0.0385009,0.985882,-1.53166,-2.34571,0.0212929,0.990189,-0.171997,0.0419471,-2.02113,-0.11328,0,11677,48.686,25.764,12543.5
199222878,0.634769,2.223,93.2251,-0.0255113,-0.0377507,0.985178,-1.47833,-2.27061,0.0250753,0.890978,-0.0641746,0.17755,-1.93351,-0.11504,0,11677,48.686,25.764,12543.5
199323249,0.634769,2.223,93.2258,-0.025377,-0.0381543,0.985191,-1.42733,-2.19066,0.0181509,0.935877,-0.0377266,-0.0518672,-1.84874,-0.114886,0,11677,48.686,25.764,12543.5
199423608,0.634769,2.223,93.2258,-0.0245283,-0.0404559,0.985032,-1.36964,-2.11318,0.0177052,0.943505,-0.0275674,0.293238,-1.76212,-0.115678,0,11677,48.686,25.764,12543.5
199523968,0.634769,2.223,93.2213,-0.022469,-0.0415526,0.985151,-1.31554,-2.04065,0.0159874,0.908383,-0.0700367,-0.108748,-1.6778,-0.115778,0,11633,48.735,22.552,10990.7
199624362,0.634769,2.223,93.2189,-0.0234533,-0.0443781,0.985108,-1.2677,-1.96179,0.00562709,0.955642,-0.00932546,0.0460553,-1.59308,-0.116694,0,11633,48.735,22.552,10990.7
199724728,0.634769,2.223,93.2105,-0.0242833,-0.0465487,0.985085,-1.21218,-1.88223,0.0050089,1.00366,-0.102638,0.0412738,-1.51434,-0.116997,0,11633,48.735,22.552,10990.7
199825077,0.634769,2.223,93.2051,-0.0229396,-0.0490953,0.984888,-1.1509,-1.78559,0.0103397,1.00719,0.000604689,0.101105,-1.43677,-0.118231,0,11633,48.735,22.552,10990.7
199925438,0.634769,2.223,93.1986,-0.0213864,-0.0500825,0.98487,-1.10351,-1.70383,0.012247,0.953354,0.00894617,-0.0401236,-1.36865,-0.118637,0,11633,48.735,22.552,10990.7
200025827,0.634769,2.223,93.194,-0.0194953,-0.0486887,0.984964,-1.04954,-1.61798,0.0204898,1.00336,-0.0258017,0.210274,-1.29644,-0.12026,0,11633,48.735,22.552,10990.7
200126157,0.634769,2.223,93.1974,-0.0200047,-0.0439153,0.984631,-1.01266,-1.53823,0.0265186,0.878921,0.0773557,-0.0169126,-1.23295,-0.121744,0,11633,48.735,22.552,10990.7
200226522,0.634769,2.223,93.2007,-0.0248864,-0.042942,0.985052,-0.971381,-1.46475,0.0237091,0.8211,-0.0163115,0.181721,-1.17216,-0.123623,0,11633,48.735,22.552,10990.7
200326896,0.634769,2.223,93.2039,-0.0288342,-0.0419123,0.984906,-0.928556,-1.39725,0.0321098,0.796256,-0.0479374,-0.0334561,-1.11768,-0.125231,0,11633,48.735,22.552,10990.7
200427241,0.634769,2.223,93.2097,-0.0304017,-0.0406827,0.984847,-0.887537,-1.33238,0.0253736,0.773088,-0.0524035,0.0957892,-1.06057,-0.128111,0,11633,48.735,22.552,10990.7
200527574,0.634769,2.223,93.2166,-0.0319045,-0.0400744,0.984588,-0.838928,-1.27068,0.0317264,0.77349,-0.0980324,0.0467082,-1.00914,-0.130264,0,11633,48.728,23.783,11589
200627912,0.634769,2.223,93.2255,-0.034537,-0.0395339,0.984798,-0.802472,-1.20887,0.0346387,0.744459,-0.0398243,-0.117245,-0.959669,-0.133158,0,11633,48.728,23.783,11589
200729062,0.634769,2.223,93.2325,-0.0370986,-0.0384671,0.984577,-0.752264,-1.15291,0.018638,0.744614,-0.124809,-0.113253,-0.912568,-0.135325,0,11633,48.728,23.783,11589
200829485,0.634769,2.223,93.2358,-0.0375119,-0.0379896,0.984364,-0.707164,-1.10265,0.0339428,0.659391,-0.129241,0.196665,-0.868085,-0.137383,0,11633,48.728,23.783,11589
200929940,0.634769,2.223,93.2456,-0.0383741,-0.036053,0.9843,-0.658476,-1.04602,0.0238783,0.700996,-0.142509,0.0627171,-0.828565,-0.13787,0,11633,48.728,23.783,11589
201030452,0.634769,2.223,93.255,-0.037399,-0.0331589,0.984277,-0.61597,-0.999592,0.0273839,0.611555,-0.122937,-0.137621,-0.787415,-0.137837,0,11633,48.728,23.783,11589
201130866,0.634769,2.223,93.2543,-0.0371561,-0.0308181,0.984134,-0.576715,-0.957615,0.0207944,0.557145,-0.0812908,0.0205937,-0.750425,-0.136896,0,11633,48.728,23.783,11589
201231273,0.634769,2.223,93.2511,-0.0373169,-0.0296601,0.984412,-0.537902,-0.910971,0.0147593,0.599451,-0.0714722,-0.00722459,-0.714715,-0.135824,0,11633,48.728,23.783,11589
201332310,0.634769,2.223,93.2496,-0.0384334,-0.0278463,0.984457,-0.498498,-0.865941,0.0152898,0.559217,-0.0875358,-0.06232,-0.682783,-0.13468,0,11633,48.728,23.783,11589
201432720,0.634769,2.223,93.2436,-0.0400953,-0.0263877,0.984895,-0.456029,-0.82529,0.00131638,0.605845,-0.113026,-0.0720022,-0.649207,-0.132554,0,11633,48.728,23.783,11589
201533114,0.634769,2.223,93.2317,-0.0395719,-0.0247816,0.984921,-0.417854,-0.792154,-0.000391447,0.480173,-0.119601,-0.00409743,-0.619587,-0.129946,0,11633,48.659,24.707,12022.2
201633493,0.634769,2.223,93.2231,-0.0365867,-0.0232179,0.984752,-0.372236,-0.755139,0.00357259,0.555321,-0.134751,0.039031,-0.59171,-0.126563,0,11633,48.659,24.707,12022.2
201734868,0.634769,2.223,93.2226,-0.0325724,-0.0209811,0.984579,-0.335245,-0.720215,-4.85713e-05,0.465556,-0.102611,-0.0160459,-0.566183,-0.122686,0,11633,48.659,24.707,12022.2
201839938,0.634769,2.223,93.2245,-0.0294109,-0.0199267,0.984447,-0.303827,-0.689665,0.00793653,0.418008,-0.0967549,0.173441,-0.541646,-0.11817,0,11633,48.659,24.707,12022.2
201940358,0.634769,2.223,93.2318,-0.0266616,-0.0164428,0.984534,-0.277729,-0.650966,0.01395,0.431412,-0.00501351,-0.00499404,-0.518656,-0.113438,0,11633,48.659,24.707,12022.2
202040742,0.634769,2.223,93.2426,-0.0267599,-0.014878,0.984609,-0.255738,-0.61595,0.0242714,0.44547,-0.00878976,0.0371043,-0.496663,-0.109478,0,11633,48.659,24.707,12022.2
202141119,0.634769,2.223,93.2473,-0.0259442,-0.0136837,0.984766,-0.234549,-0.582664,0.017598,0.375411,0.0101795,-0.0675765,-0.476573,-0.105742,0,11633,48.659,24.707,12022.2
202241480,0.634769,2.223,93.2493,-0.0244543,-0.0135255,0.984908,-0.209713,-0.559476,0.0175304,0.364511,-0.0984571,-0.110368,-0.457101,-0.10169,0,11633,48.659,24.707,12022.2
202341841,0.634769,2.223,93.2527,-0.0233431,-0.0138871,0.98491,-0.192947,-0.524986,0.0143016,0.368279,0.00838661,0.0988064,-0.439949,-0.0973539,0,11633,48.659,24.707,12022.2
202442194,0.634769,2.223,93.2543,-0.0219783,-0.0127853,0.984855,-0.173192,-0.493092,0.0131188,0.387688,0.0585774,0.277371,-0.422234,-0.0936071,0,11633,48.659,24.707,12022.2
202542551,0.634769,2.223,93.2472,-0.0213617,-0.0110973,0.985079,-0.157473,-0.461495,0.00463575,0.339941,0.00761785,-0.109119,-0.407152,-0.0902591,0,11633,48.659,24.707,12022.2
202642914,0.634769,2.223,93.2402,-0.0212546,-0.00945619,0.985291,-0.137074,-0.43312,0.000349768,0.310137,-0.0190037,-0.0163867,-0.393075,-0.0878357,0,11633,48.638,24.748,12036.9
202743274,0.634769,2.223,93.2309,-0.0207142,-0.00740538,0.985345,-0.120332,-0.407663,0.00209759,0.297147,-0.0220851,0.0718243,-0.38026,-0.0849269,0,11633,48.638,24.748,12036.9
202843622,0.634769,2.223,93.2231,-0.0212416,-0.00534945,0.985534,-0.114252,-0.377288,0.00444634,0.276302,0.0923612,0.0321085,-0.36847,-0.0823677,0,11633,48.638,24.748,12036.9
202943984,0.634769,2.223,93.2189,-0.0226257,-0.00442073,0.985532,-0.105696,-0.351577,0.00264683,0.208378,0.0314476,0.118992,-0.35828,-0.0797931,0,11633,48.638,24.748,12036.9
203044460,0.634769,2.223,93.2149,-0.0228678,-0.00331719,0.985444,-0.0955252,-0.323664,0.016421,0.204023,0.0377373,0.0187162,-1.7,3.8,0,11633,48.638,24.748,12036.9
203144820,0.634769,2.223,93.2167,-0.0230169,-0.00655176,0.985513,-0.0852173,-0.30222,0.0135266,0.204601,0.0132944,0.0537001,-1.7,3.8,0,11633,48.638,24.748,12036.9
203245156,0.634769,2.223,93.2237,-0.0206589,-0.0254276,0.98589,-0.0714931,-0.272981,0.0225821,0.375479,0.070583,0.0900008,-1.7,3.8,0,11633,48.638,24.748,12036.9
203345524,0.634769,2.223,93.2335,-0.0188066,-0.0347399,0.986045,-0.0521054,-0.229247,0.0204656,0.449112,0.0678304,-0.0789885,-1.7,3.8,0,11633,48.638,24.748,12036.9
203445911,0.634769,2.223,93.2403,-0.0166179,-0.0392982,0.985939,-0.0244785,-0.171808,0.0214899,0.602326,0.0983737,0.114315,-1.7,3.8,0,11633,48.638,24.748,12036.9
203546243,0.634769,2.223,93.233,-0.0166072,-0.0380925,0.986017,0.0118246,-0.116688,0.0221401,0.644174,0.00994011,0.0633041,-1.7,3.8,0,11633,48.638,24.748,12036.9
203646594,0.634769,2.223,93.2308,-0.0156549,-0.0335664,0.986139,0.0427291,-0.0607055,0.0203023,0.587136,0.0658949,0.0600482,-1.7,3.8,0,11633,48.621,24.846,12080.4
203746894,0.634769,2.223,93.229,-0.0157017,-0.0279843,0.986054,0.0665144,-0.0141127,0.016026,0.442865,0.0686253,-0.0451313,-1.7,3.8,0,11633,48.621,24.846,12080.4
203847434,0.634769,2.223,93.2303,-0.0149856,-0.0209654,0.986102,0.0874867,0.0329957,0.0114026,0.438568,0.12109,0.181512,-1.7,3.8,0,11633,48.621,24.846,12080.4
203948702,0.634769,2.223,93.233,-0.0158686,-0.0115116,0.986155,0.101966,0.0714979,0.0190935,0.371514,0.11365,-0.0732234,-1.7,3.8,0,11633,48.621,24.846,12080.4
204049074,0.634769,2.223,93.2346,-0.0165579,-0.00183206,0.986131,0.105068,0.100157,0.0222285,0.17394,0.132285,0.0794948,-1.7,3.8,0,11633,48.621,24.846,12080.4
204149430,0.634769,2.223,93.2404,-0.0107494,0.00808221,0.985629,0.107935,0.121627,0.0209279,0.12802,0.108058,0.0952469,-1.7,3.8,0,11633,48.621,24.846,12080.4
204249683,0.634769,2.223,93.2443,0.116993,0.0702141,0.991479,0.097522,0.146106,0.0556043,0.00816454,0.406255,0.0420716,-1.7,3.8,0,11633,48.621,24.846,12080.4
204349985,0.634769,2.223,93.2477,0.260942,0.131339,1.00531,-0.0971818,0.194821,0.0130361,-0.839488,2.08445,0.0766234,-1.7,3.8,0,11633,48.621,24.846,12080.4
204450439,0.634769,2.223,93.2542,0.351884,0.168725,1.01781,-0.436672,0.262821,-0.0224453,-1.29202,3.14917,1.05523,-1.7,3.8,0,11633,48.621,24.846,12080.4
204550808,0.634769,2.223,93.254,0.395957,0.186421,1.02484,-0.867821,0.344473,-0.0274078,-1.55642,3.72034,1.80089,-1.7,3.8,0,11633,48.621,24.846,12080.4
204651189,0.634769,2.223,93.2484,0.409149,0.192397,1.0274,-1.33075,0.431444,-0.0228143,-1.65958,3.87958,2.02974,-1.7,3.8,0,11633,48.592,25.164,12227.7
204751541,0.634769,2.223,93.2417,0.406413,0.194351,1.02755,-1.80408,0.518137,-0.0110684,-1.66659,3.89854,2.09287,-1.7,3.8,0,11633,48.592,25.164,12227.7
204851852,0.634769,2.223,93.2357,0.380486,0.187825,1.02371,-2.26737,0.603566,-0.00554465,-1.63003,3.76753,2.17894,-1.7,3.8,0,11633,48.592,25.164,12227.7
204952281,0.634769,2.223,93.2334,0.323192,0.167359,1.01468,-2.69268,0.672534,0.00789457,-1.51043,3.35211,1.78502,-1.7,3.8,0,11633,48.592,25.164,12227.7
205052694,0.634769,2.223,93.2369,0.257749,0.141663,1.0058,-3.04633,0.727818,0.0286118,-1.3228,2.83233,1.1006,2.7,2.3,0,11633,48.592,25.164,12227.7
205153047,0.634769,2.223,93.2428,0.183344,0.0801808,0.993466,-3.31661,0.757883,0.0380602,-1.17611,2.12169,0.950733,2.7,2.3,0,11633,48.592,25.164,12227.7
205253410,0.634769,2.223,93.2555,0.0479456,-0.146189,0.987286,-3.48427,0.813047,0.118714,-0.026251,1.25266,0.50978,2.7,2.3,0,11633,48.592,25.164,12227.7
205353779,0.634769,2.223,93.279,-0.0577248,-0.313324,0.997624,-3.35303,1.00685,0.0715778,2.74937,-0.327046,-0.333602,2.7,2.3,0,11633,48.592,25.164,12227.7
205454154,0.634769,2.223,93.2892,-0.114194,-0.406917,1.00739,-3.07775,1.26963,-0.00859393,3.6647,-0.882866,1.31518,2.7,2.3,0,11633,48.592,25.164,12227.7
205554502,0.634768,2.223,93.2864,-0.138375,-0.447432,1.01077,-2.69566,1.58761,-0.0197624,4.3871,-1.39405,2.0642,2.7,2.3,0,11633,48.592,25.164,12227.7
205654853,0.634768,2.223,93.275,-0.13709,-0.455138,1.00721,-2.28263,1.91802,-0.0471597,4.52883,-1.39021,2.21208,2.7,2.3,0,11633,48.593,25.476,12379.6
205755190,0.634768,2.223,93.2513,-0.123269,-0.445985,1.00142,-1.87177,2.24988,-0.0468682,4.42489,-1.34215,2.37076,2.7,2.3,0,11633,48.593,25.476,12379.6
205855558,0.634768,2.223,93.2327,-0.0954211,-0.395541,0.992404,-1.47249,2.58524,-0.0492357,4.39365,-1.20993,2.28055,2.7,2.3,0,11633,48.593,25.476,12379.6
205955843,0.634768,2.223,93.2358,-0.062458,-0.323204,0.985289,-1.13199,2.87804,-0.0115651,3.72002,-0.91813,1.69095,2.7,2.3,0,11633,48.593,25.476,12379.6
206056236,0.634768,2.223,93.242,-0.0293236,-0.246328,0.982302,-0.881295,3.09635,0.00645258,2.70197,-0.646369,1.08941,2.7,2.3,0,11633,48.593,25.476,12379.6
206156549,0.634768,2.223,93.2478,-0.00378571,-0.184524,0.982284,-0.710429,3.26776,6.5472e-05,2.06378,-0.310414,0.440766,2.7,2.3,0,11633,48.593,25.476,12379.6
206256933,0.634768,2.223,93.2619,0.0146296,-0.136497,0.982704,-0.590156,3.40478,0.0150742,1.49971,-0.101163,0.248387,2.7,2.3,0,11633,48.593,25.476,12379.6
206357282,0.634768,2.223,93.2934,0.0244047,-0.100937,0.983985,-0.513612,3.5133,0.0276399,1.03556,0.089385,0.0638426,2.7,2.3,0,11633,48.593,25.476,12379.6
206457671,0.634768,2.223,93.3192,0.0266735,-0.0739985,0.984844,-0.473764,3.59878,0.0218503,0.671321,0.276526,-0.203592,2.7,2.3,0,11633,48.593,25.476,12379.6
206558037,0.634768,2.223,93.3319,0.0259118,-0.0552092,0.985667,-0.44999,3.65009,0.0170695,0.332572,0.198643,-0.0556519,2.7,2.3,0,11633,48.593,25.476,12379.6
206658327,0.634768,2.223,93.3448,0.0217007,-0.0428853,0.985754,-0.433792,3.68919,0.0105294,0.272287,0.124508,-0.211508,2.7,2.3,0,11633,48.506,26.839,13018.5
206758673,0.634768,2.223,93.3538,0.0183697,-0.0361071,0.985816,-0.425966,3.7199,0.00125352,0.16727,0.156001,-0.281974,2.7,2.3,0,11633,48.506,26.839,13018.5
206858961,0.634768,2.223,93.3614,0.0151956,-0.0318182,0.985993,-0.422257,3.74526,-0.0133646,0.168215,0.0959011,-0.364269,2.7,2.3,0,11633,48.506,26.839,13018.5
206959303,0.634768,2.223,93.3594,0.0108958,-0.029506,0.986223,-0.423963,3.76113,-0.0225412,0.116303,0.0758146,-0.108071,2.7,2.3,0,11633,48.506,26.839,13018.5
207059689,0.634768,2.223,93.3558,0.00807743,-0.0279065,0.9861,-0.425316,3.78097,-0.0336067,0.14772,0.075232,-0.0723598,2,0.5,0,11633,48.506,26.839,13018.5
207160082,0.634768,2.223,93.3484,-0.00674193,-0.0222573,0.986422,-0.421577,3.7796,-0.0324719,0.0447792,-0.0514829,-0.0537426,2,0.5,0,11633,48.506,26.839,13018.5
207260454,0.634768,2.223,93.3447,-0.137665,0.0244214,0.984572,-0.408758,3.75628,0.00475825,-0.150751,-0.491975,0.322123,2,0.5,0,11633,48.506,26.839,13018.5
207361784,0.634768,2.223,93.3423,-0.244479,0.0602951,0.976656,-0.296164,3.60258,-0.00842156,-0.677532,-2.03581,-0.156521,2,0.5,0,11633,48.506,26.839,13018.5
207467865,0.634768,2.223,93.3343,-0.29238,0.0722949,0.970495,-0.084049,3.32054,-0.0646554,-0.874158,-2.80564,0.793934,2,0.5,0,11633,48.506,26.839,13018.5
207568297,0.634768,2.223,93.32,-0.278145,0.0687026,0.969591,0.115934,3.072,-0.0767853,-0.854652,-2.91961,0.797198,2,0.5,0,11633,48.506,26.839,13018.5
207668657,0.634768,2.223,93.307,-0.231322,0.0586006,0.970858,0.286027,2.84024,-0.0815275,-0.857832,-2.53852,0.781768,2,0.5,0,11633,48.405,28.832,13956.1
207768950,0.634768,2.223,93.2992,-0.180009,0.0448369,0.974139,0.416493,2.64724,-0.0589582,-0.749307,-2.05209,0.593643,2,0.5,0,11633,48.405,28.832,13956.1
207869267,0.634768,2.223,93.2928,-0.135242,0.0264219,0.977932,0.511522,2.50185,-0.0423022,-0.578378,-1.47382,0.494884,2,0.5,0,11633,48.405,28.832,13956.1
207969615,0.634768,2.223,93.2856,-0.103956,0.00829318,0.981138,0.594463,2.40067,-0.0314196,-0.319472,-1.14368,0.110738,2,0.5,0,11633,48.405,28.832,13956.1
208069929,0.634768,2.223,93.2782,-0.0765287,-0.00720885,0.98306,0.661003,2.32925,-0.0239716,-0.125617,-0.848625,0.323857,2,0.5,0,11633,48.405,28.832,13956.1
208170331,0.634768,2.223,93.2746,-0.0582349,-0.0183393,0.984415,0.708443,2.28993,-0.0184573,-0.0315865,-0.548161,0.167348,2,0.5,0,11633,48.405,28.832,13956.1
208270594,0.634768,2.223,93.2719,-0.0436375,-0.0251236,0.984967,0.748873,2.25436,-0.0137092,-0.0558846,-0.430954,0.241714,2,0.5,0,11633,48.405,28.832,13956.1
208370940,0.634768,2.223,93.2682,-0.0343202,-0.0276977,0.984933,0.783828,2.24391,-0.0152519,0.0943717,-0.285259,0.0183383,2,0.5,0,11633,48.405,28.832,13956.1
208471231,0.634768,2.223,93.2644,-0.0265986,-0.0275967,0.984795,0.813876,2.24696,-0.011221,0.150298,-0.13291,0.189365,2,0.5,0,11633,48.405,28.832,13956.1
208571493,0.634768,2.223,93.2673,-0.0246965,-0.0252127,0.984746,0.830683,2.2519,-0.00208082,0.0793284,-0.0886891,0.160501,2,0.5,0,11633,48.405,28.832,13956.1
208671892,0.634768,2.223,93.2684,-0.024942,-0.02279,0.985023,0.845525,2.26354,-0.000412215,0.111721,-0.0383568,-0.198132,2,0.5,0,11633,48.405,28.832,13956.1
208772329,0.634768,2.223,93.2732,-0.0249214,-0.0189524,0.984995,0.861815,2.27652,-0.00400344,0.082809,-0.0394848,-0.0501441,2,0.5,0,11589,48.568,25.746,12504.3
208872660,0.634768,2.223,93.2755,-0.0272925,-0.0149502,0.984751,0.872482,2.27867,0.00167809,-0.0488243,-0.165565,-0.00805019,2,0.5,0,11589,48.568,25.746,12504.3
208973004,0.634768,2.223,93.276,-0.0267915,-0.0121824,0.984923,0.882754,2.27389,0.000839606,-0.0736633,-0.194292,0.0303896,2,0.5,0,11589,48.568,25.746,12504.3
209073412,0.634768,2.223,93.2802,-0.0274928,-0.0109028,0.984708,0.885298,2.27215,-3.46843e-05,-0.125192,-0.0823604,0.107723,-3.1,-3.5,0,11589,48.568,25.746,12504.3
209173790,0.634769,2.223,93.2853,-0.0436326,0.0201503,0.982322,0.889237,2.27097,0.0130261,-0.0378112,-0.0614799,0.344852,-3.1,-3.5,0,11589,48.568,25.746,12504.3
209274153,0.634769,2.223,93.2948,-0.133588,0.154175,0.973713,0.892446,2.22199,0.0583971,-0.847294,-0.547864,-0.143041,-3.1,-3.5,0,11589,48.568,25.746,12504.3
209374503,0.634769,2.223,93.3109,-0.21317,0.253727,0.956596,0.893239,1.98201,0.00602034,-2.26311,-1.5299,0.0360599,-3.1,-3.5,0,11589,48.568,25.746,12504.3
209474870,0.634769,2.223,93.3196,-0.261242,0.315247,0.941494,0.903578,1.62965,-0.0306369,-2.91277,-1.99892,1.13796,-3.1,-3.5,0,11589,48.568,25.746,12504.3
209575237,0.634769,2.223,93.3238,-0.282812,0.341445,0.933634,0.91958,1.19358,-0.0416205,-3.31918,-2.35292,1.76943,-3.1,-3.5,0,11589,48.568,25.746,12504.3
209675586,0.634769,2.223,93.326,-0.287973,0.344356,0.931152,0.923808,0.746272,-0.0426925,-3.38891,-2.30485,1.89863,-3.1,-3.5,0,11589,48.568,25.746,12504.3
