timestamp,lat,log,alt,roll,pitch,yaw,vel_x,vel_y,vel_z,acc_x,acc_y,acc_z,act_vx,act_vy,act_yr,capacity,vol,cur,power
3335162893,0.634767,2.223,122.787,-0.0466078,0.0275974,0.961783,0.0331808,0.0484932,-0.020244,-0.0689537,-0.0864975,0.0673724,0,1.1,0,12641,49.533,24.691,12230.2
3335263315,0.634767,2.223,122.784,-0.0450092,0.0251237,0.962059,0.0412603,0.0414065,-0.020786,0.0568342,-0.115481,0.139468,0,1.1,0,12641,49.541,24.485,12130.1
3335363734,0.634767,2.223,122.779,-0.0353291,0.0274313,0.961618,0.040086,0.039138,-0.0197013,0.0115247,-0.00711258,0.331071,0,1.1,0,12641,49.541,24.485,12130.1
3335464108,0.634767,2.223,122.775,0.0321015,0.0307458,0.963668,0.0252905,0.0412504,0.0121609,-0.0500169,0.346125,0.0801796,0,1.1,0,12641,49.541,24.485,12130.1
3335564457,0.634767,2.223,122.778,0.105766,0.0329831,0.96567,-0.0690189,0.0908612,-0.0035834,-0.115302,1.13785,0.153779,0,1.1,0,12641,49.541,24.485,12130.1
3335664850,0.634767,2.223,122.789,0.141298,0.0302838,0.965674,-0.209341,0.171882,0.00679294,-0.0940904,1.59743,0.243607,0,1.1,0,12641,49.541,24.485,12130.1
3335765200,0.634767,2.223,122.798,0.144672,0.0268775,0.965239,-0.360441,0.269475,0.00491147,-0.0176936,1.77685,0.10206,0,1.1,0,12641,49.541,24.485,12130.1
3335865557,0.634767,2.223,122.807,0.126323,0.0234555,0.964553,-0.518853,0.369782,0.0025754,-0.0509187,1.79091,0.14524,0,1.1,0,12641,49.541,24.485,12130.1
3335965913,0.634767,2.223,122.821,0.0964446,0.0211589,0.963845,-0.646498,0.462763,0.00266207,0.0701609,1.51153,-0.0133425,0,1.1,0,12641,49.541,24.485,12130.1
3336066274,0.634767,2.223,122.829,0.0681446,0.0218059,0.963538,-0.744663,0.535144,0.000787799,0.0333016,1.15534,-0.0551908,0,1.1,0,12641,49.541,24.485,12130.1
3336168178,0.634767,2.223,122.83,0.0387936,0.0232701,0.963554,-0.814357,0.583677,-0.00579791,0.0121778,0.781831,-0.0675809,0,1.1,0,12641,49.541,24.485,12130.1
3336268555,0.634767,2.223,122.826,0.0160246,0.023353,0.963278,-0.870672,0.618278,-0.0189691,0.00455685,0.599321,-0.129726,0,1.1,0,12641,49.565,23.62,11707.3
3336369512,0.634767,2.223,122.821,4.54304e-05,0.0235761,0.963015,-0.901006,0.652586,-0.0147709,0.119966,0.348533,0.114833,0,1.1,0,12641,49.565,23.62,11707.3
3336469883,0.634767,2.223,122.822,-0.00827029,0.0242246,0.96319,-0.917909,0.665681,-0.0138914,0.0447946,0.154769,-0.15608,0,1.1,0,12641,49.565,23.62,11707.3
3336570234,0.634767,2.223,122.817,-0.0134107,0.0257754,0.963183,-0.929335,0.679588,-0.0207786,0.0206628,0.122089,-0.0473216,0,1.1,0,12641,49.565,23.62,11707.3
3336670552,0.634767,2.223,122.802,-0.0164582,0.0274186,0.963022,-0.932663,0.690018,-0.0219881,0.0864118,0.071648,0.0324368,0,1.1,0,12641,49.565,23.62,11707.3
3336770859,0.634767,2.223,122.801,-0.017585,0.0300278,0.963113,-0.932367,0.704547,-0.0158821,0.126585,0.0408677,0.0614079,0,1.1,0,12641,49.565,23.62,11707.3
3336871231,0.634767,2.223,122.788,-0.0176774,0.0331847,0.96328,-0.935059,0.709088,-0.024363,0.0204193,0.0897156,0.04351,0,1.1,0,12641,49.565,23.62,11707.3
3336971583,0.634767,2.223,122.778,-0.0186977,0.0345413,0.963271,-0.941249,0.712647,-0.0156077,0.0614844,0.086327,0.17156,0,1.1,0,12641,49.565,23.62,11707.3
3337071943,0.634767,2.223,122.776,-0.0209485,0.0349178,0.963301,-0.940814,0.712783,-0.0098078,-0.00460786,0.0107337,0.0868409,0,1.1,0,12641,49.565,23.62,11707.3
3337172385,0.634767,2.223,122.79,-0.022403,0.0340969,0.963335,-0.945398,0.706501,-0.00636541,-0.0810091,0.031283,-0.0317171,0,-3.2,0,12641,49.565,23.62,11707.3
3337272760,0.634767,2.223,122.79,-0.0370684,0.031302,0.964883,-0.946857,0.704595,-0.0129119,-0.00508294,0.0169818,0.158949,0,-3.2,0,12641,49.565,23.62,11707.3
3337373137,0.634767,2.223,122.793,-0.174775,0.0234094,0.96117,-0.937353,0.698561,0.0342062,0.0663067,-0.35011,0.0110632,0,-3.2,0,12641,49.535,24.89,12329.3
3337473450,0.634767,2.223,122.804,-0.315195,0.0166863,0.959785,-0.774237,0.610601,-0.00651079,0.218978,-2.0647,-0.181622,0,-3.2,0,12641,49.535,24.89,12329.3
3337573817,0.634767,2.223,122.809,-0.406272,0.0159664,0.959998,-0.49411,0.441138,-0.0417757,0.217572,-3.02307,1.45393,0,-3.2,0,12641,49.535,24.89,12329.3
3337674140,0.634767,2.223,122.812,-0.449176,0.0159449,0.960704,-0.144175,0.216963,-0.0353647,0.170195,-3.69428,1.77495,0,-3.2,0,12641,49.535,24.89,12329.3
3337774547,0.634767,2.223,122.817,-0.459812,0.0181167,0.960916,0.235905,-0.0299884,-0.035001,0.22333,-3.96587,1.96751,0,-3.2,0,12641,49.535,24.89,12329.3
3337874858,0.634767,2.223,122.82,-0.453858,0.0208375,0.960778,0.61707,-0.266273,-0.02251,0.292566,-3.87842,1.97251,0,-3.2,0,12641,49.535,24.89,12329.3
3337975186,0.634767,2.223,122.82,-0.442426,0.0251157,0.95995,0.979547,-0.50589,-0.0128744,0.169169,-3.7495,1.82554,0,-3.2,0,12641,49.535,24.89,12329.3
3338075533,0.634767,2.223,122.823,-0.424982,0.0318406,0.958053,1.32084,-0.741345,-0.0166732,0.111734,-3.72434,1.50169,0,-3.2,0,12641,49.535,24.89,12329.3
3338175894,0.634767,2.223,122.831,-0.37634,0.0384571,0.956832,1.64116,-0.968019,-0.0110949,0.054422,-3.33911,1.45836,0,-3.2,0,12641,49.535,24.89,12329.3
3338276282,0.634767,2.223,122.831,-0.320955,0.0445044,0.955995,1.9021,-1.16789,-0.00737014,-0.0697168,-2.80417,1.00402,0,-3.2,0,12641,49.535,24.89,12329.3
3338376624,0.634767,2.223,122.839,-0.268114,0.0455443,0.956465,2.10758,-1.33788,-0.00437337,-0.0938577,-2.32337,0.483488,0,-3.2,0,12641,49.507,24.455,12106.9
3338476945,0.634767,2.223,122.853,-0.220589,0.0431591,0.957236,2.26503,-1.46938,0.0143236,-0.055898,-1.6945,0.532227,0,-3.2,0,12641,49.507,24.455,12106.9
3338577284,0.634767,2.223,122.87,-0.18648,0.0422089,0.957582,2.3838,-1.56869,0.0142164,-0.0582138,-1.25112,0.127332,0,-3.2,0,12641,49.507,24.455,12106.9
3338677646,0.634767,2.223,122.879,-0.15997,0.0403891,0.958071,2.46746,-1.65002,0.00504872,-0.0889624,-0.951869,0.0291021,0,-3.2,0,12641,49.507,24.455,12106.9
3338777990,0.634767,2.223,122.891,-0.141399,0.0395529,0.95879,2.52397,-1.70984,0.00185762,-0.0415484,-0.668868,-0.027312,0,-3.2,0,12641,49.507,24.455,12106.9
3338878333,0.634768,2.223,122.904,-0.127651,0.0356066,0.959538,2.57079,-1.76409,-0.0074229,-0.0436037,-0.557264,-0.127796,0,-3.2,0,12641,49.507,24.455,12106.9
3338978665,0.634768,2.223,122.918,-0.116082,0.0324582,0.959947,2.60432,-1.79875,-0.0137021,0.027971,-0.413753,-0.064847,0,-3.2,0,12641,49.507,24.455,12106.9
3339079032,0.634768,2.223,122.927,-0.108067,0.030962,0.960056,2.62593,-1.82728,-0.0310354,-0.0243327,-0.291329,0.00513711,0,-3.2,0,12641,49.507,24.455,12106.9
3339179430,0.634768,2.223,122.934,-0.102947,0.0299692,0.960057,2.64109,-1.84922,-0.0290802,-0.00682746,-0.240914,-0.0655569,0,-0.7,0,12641,49.507,24.455,12106.9
3339279804,0.634768,2.223,122.946,-0.0858609,0.0295237,0.95818,2.64117,-1.85879,-0.0561903,0.0242072,-0.129889,-0.22354,0,-0.7,0,12641,49.507,24.455,12106.9
3339380216,0.634768,2.223,122.951,0.10767,0.0286807,0.964161,2.5993,-1.84687,0.0314439,0.0147836,0.851112,0.376619,0,-0.7,0,12641,49.498,25.348,12546.8
3339480553,0.634768,2.223,122.971,0.264157,0.0247197,0.967267,2.34777,-1.68199,0.00152667,0.0211877,3.14256,-0.293359,0,-0.7,0,12641,49.498,25.348,12546.8
3339580840,0.634768,2.223,122.978,0.320859,0.0253742,0.966763,2.04222,-1.47379,-0.0872196,0.0873733,3.60107,0.780495,0,-0.7,0,12641,49.498,25.348,12546.8
3339681158,0.634768,2.223,122.971,0.318661,0.024881,0.965538,1.67863,-1.23739,-0.10547,0.0208511,3.91647,1.3872,0,-0.7,0,12641,49.498,25.348,12546.8
3339781432,0.634768,2.223,122.965,0.270911,0.0130159,0.960891,1.36313,-1.01013,-0.105879,0.134748,3.54359,0.788189,0,-0.7,0,12641,49.498,25.348,12546.8
3339881698,0.634768,2.223,122.953,0.203536,0.00467473,0.958215,1.10762,-0.819753,-0.12472,0.194013,2.86092,0.400435,0,-0.7,0,12641,49.498,25.348,12546.8
3339981955,0.634768,2.223,122.917,0.141994,-0.00200828,0.957529,0.921699,-0.652655,-0.127578,0.419204,2.14649,0.487356,0,-0.7,0,12641,49.498,25.348,12546.8
3340082207,0.634768,2.223,122.883,0.083032,0.00340509,0.959618,0.774948,-0.522097,-0.12015,0.263184,1.67046,0.570376,0,-0.7,0,12641,49.498,25.348,12546.8
3340182861,0.634768,2.223,122.877,0.0328856,0.0145322,0.961038,0.65719,-0.429097,-0.0967162,0.134521,1.21777,0.286131,0,-0.7,0,12641,49.498,25.348,12546.8
3340286488,0.634768,2.223,122.883,-0.00797087,0.0214755,0.962342,0.5807,-0.362981,-0.0824447,0.108535,0.746339,-0.0339427,0,-0.7,0,12641,49.498,25.348,12546.8
3340388433,0.634768,2.223,122.883,-0.0311735,0.0240434,0.962717,0.538021,-0.331277,-0.0685625,0.0589436,0.324963,0.212956,0,-0.7,0,12641,49.37,29.314,14472.3
3340488838,0.634768,2.223,122.879,-0.0462902,0.0265995,0.962904,0.506942,-0.301802,-0.0533609,0.0948102,0.249124,0.0356425,0,-0.7,0,12641,49.37,29.314,14472.3
3340593662,0.634768,2.223,122.894,-0.0592993,0.0290118,0.96313,0.490931,-0.283073,-0.0415128,0.0686775,0.123505,0.0503193,0,-0.7,0,12641,49.37,29.314,14472.3
3340694029,0.634768,2.223,122.895,-0.0686841,0.0297132,0.962873,0.485716,-0.276942,-0.039727,0.0571369,-0.0261227,-0.070585,0,-0.7,0,12641,49.37,29.314,14472.3
3340794396,0.634768,2.223,122.889,-0.0761977,0.0291907,0.962317,0.489707,-0.290434,-0.0549287,-0.0840128,-0.166758,0.119219,0,-0.7,0,12641,49.37,29.314,14472.3
3340894761,0.634768,2.223,122.881,-0.0757778,0.0269721,0.962423,0.514904,-0.294122,-0.0422289,0.14734,-0.255635,0.024696,0,-0.7,0,12641,49.37,29.314,14472.3
3340995113,0.634768,2.223,122.885,-0.0759079,0.0287854,0.962273,0.531302,-0.296115,-0.0437737,0.0792689,-0.186245,-0.097486,0,-0.7,0,12641,49.37,29.314,14472.3
3341095474,0.634768,2.223,122.885,-0.0722455,0.0290508,0.961877,0.554456,-0.30135,-0.0439115,0.109894,-0.200482,-0.107648,0,-0.7,0,12641,49.37,29.314,14472.3
3341195878,0.634768,2.223,122.878,-0.0668216,0.0315846,0.961929,0.572418,-0.300319,-0.0452516,0.133914,-0.0713996,0.0402585,0,-0.5,0,12641,49.37,29.314,14472.3
3341296270,0.634768,2.223,122.869,-0.0547147,0.0357534,0.961776,0.583431,-0.309262,-0.0546972,-0.0142707,-0.0628272,-0.0284941,0,-0.5,0,12641,49.37,29.314,14472.3
3341396626,0.634768,2.223,122.868,-0.0252771,0.0356701,0.962788,0.583115,-0.312467,-0.0480533,-0.0192982,0.241902,0.00238903,0,-0.5,0,12597,49.453,24.055,11895.9
3341497000,0.634768,2.223,122.869,-0.0188167,0.0376166,0.962536,0.551181,-0.29273,-0.0445308,-0.0385875,0.390485,-0.0417699,0,-0.5,0,12597,49.453,24.055,11895.9
3341597366,0.634768,2.223,122.869,-0.0171895,0.0408567,0.962824,0.521598,-0.274712,-0.0405997,-0.0173053,0.427796,-0.0497294,0,-0.5,0,12597,49.453,24.055,11895.9
3341697685,0.634768,2.223,122.869,-0.0198503,0.0430776,0.962286,0.485697,-0.264344,-0.0389536,-0.0653546,0.424323,0.116708,0,-0.5,0,12597,49.453,24.055,11895.9
3341798063,0.634768,2.223,122.874,-0.0246358,0.0474388,0.962447,0.455175,-0.25021,-0.0146562,-0.122449,0.420621,0.0472687,0,-0.5,0,12597,49.453,24.055,11895.9
3341898418,0.634768,2.223,122.888,-0.0286972,0.0475377,0.962456,0.427273,-0.254935,-0.0253422,-0.181633,0.275755,-0.175288,0,-0.5,0,12597,49.453,24.055,11895.9
3341998714,0.634768,2.223,122.898,-0.0353954,0.0458554,0.9628,0.397026,-0.264307,-0.0172145,-0.233934,0.193017,-0.177457,0,-0.5,0,12597,49.453,24.055,11895.9
3342099074,0.634768,2.223,122.911,-0.0402598,0.0408292,0.962772,0.377859,-0.276252,-0.0265467,-0.18281,0.127983,-0.0564929,0,-0.5,0,12597,49.453,24.055,11895.9
3342199431,0.634768,2.223,122.912,-0.0432967,0.037166,0.962915,0.364928,-0.284004,-0.0373254,-0.127425,0.0742724,-0.120949,0,-0.5,0,12597,49.453,24.055,11895.9
3342299786,0.634768,2.223,122.909,-0.0491343,0.0343476,0.963135,0.343359,-0.289916,-0.0471393,-0.192586,0.148364,-0.155552,0,-0.5,0,12597,49.453,24.055,11895.9
3342400115,0.634768,2.223,122.909,-0.0538201,0.0321291,0.962669,0.327891,-0.297928,-0.0600955,-0.127115,0.140364,-0.0891115,0,-0.5,0,12597,49.453,24.055,11895.9
3342500467,0.634768,2.223,122.902,-0.0580234,0.0315929,0.962102,0.329801,-0.315293,-0.0630322,-0.0581709,-0.0664134,-0.105942,0,-0.5,0,12597,49.488,24.364,12057.3
3342600823,0.634768,2.223,122.89,-0.057244,0.0316795,0.962093,0.325289,-0.337129,-0.0685284,-0.149397,0.0074529,-0.0247402,0,-0.5,0,12597,49.488,24.364,12057.3
3342702068,0.634768,2.223,122.882,-0.0553304,0.0308813,0.962494,0.316223,-0.36172,-0.0672466,-0.164863,0.064149,0.356793,0,-0.5,0,12597,49.488,24.364,12057.3
3342804930,0.634768,2.223,122.872,-0.050957,0.0271551,0.962653,0.307917,-0.387359,-0.0532805,-0.2089,0.000826394,-0.0111469,0,-0.5,0,12597,49.488,24.364,12057.3
3342905317,0.634768,2.223,122.867,-0.0493152,0.0211989,0.963037,0.301548,-0.393459,-0.0497391,-0.0430352,0.0594021,0.236497,0,-0.5,0,12597,49.488,24.364,12057.3
3343005692,0.634768,2.223,122.862,-0.0515836,0.0177741,0.96364,0.293408,-0.403078,-0.0440399,-0.0605987,0.0322061,-0.010277,0,-0.5,0,12597,49.488,24.364,12057.3
3343106087,0.634768,2.223,122.861,-0.051147,0.0131535,0.964271,0.299063,-0.412528,-0.0556087,0.0277787,-0.0645563,-0.274771,0,-0.5,0,12597,49.488,24.364,12057.3
3343206532,0.634768,2.223,122.864,-0.0507118,0.0122371,0.964246,0.302584,-0.409568,-0.0523349,0.0638445,0.0216794,0.0260658,0,4.7,0,12597,49.488,24.364,12057.3
3343306818,0.634768,2.223,122.871,-0.0229082,0.012783,0.962271,0.310863,-0.410246,-0.0419653,0.044173,-0.0302995,0.393683,0,4.7,0,12597,49.488,24.364,12057.3
3343407188,0.634768,2.223,122.879,0.162385,0.012768,0.96512,0.270427,-0.376057,0.0211898,0.0755147,0.93437,0.325237,0,4.7,0,12597,49.488,24.364,12057.3
3343507578,0.634768,2.223,122.88,0.31212,0.0113384,0.966409,0.0487468,-0.214184,-0.0268887,0.13172,2.99124,-0.0289097,0,4.7,0,12597,49.455,24.365,12049.7
3343607933,0.634768,2.223,122.88,0.400864,0.00692738,0.965351,-0.280788,0.0222446,-0.0717289,0.0963291,3.87447,1.54053,0,4.7,0,12597,49.455,24.365,12049.7
3343708357,0.634768,2.223,122.881,0.444752,0.00367458,0.964389,-0.683857,0.313714,-0.0762005,0.140739,4.55472,2.02213,0,4.7,0,12597,49.455,24.365,12049.7
3343808728,0.634768,2.223,122.888,0.456309,0.00351142,0.964213,-1.11427,0.629709,-0.078091,0.144366,4.83564,2.07066,0,4.7,0,12597,49.455,24.365,12049.7
3343909075,0.634768,2.223,122.882,0.449112,0.00632579,0.965295,-1.54775,0.951139,-0.0830329,0.202885,4.68936,2.43133,0,4.7,0,12597,49.455,24.365,12049.7
3344009417,0.634768,2.223,122.875,0.439393,0.00905045,0.965938,-1.96765,1.26477,-0.0654157,0.185387,4.58806,2.24156,0,4.7,0,12597,49.455,24.365,12049.7
3344109775,0.634768,2.223,122.881,0.418138,0.0133288,0.967031,-2.36991,1.5658,-0.0638692,0.186215,4.40682,2.09086,0,4.7,0,12597,49.455,24.365,12049.7
3344210142,0.634768,2.223,122.88,0.357637,0.0165732,0.967336,-2.75671,1.84764,-0.0484728,0.0964765,4.1296,1.84492,0,4.7,0,12597,49.455,24.365,12049.7
3344310556,0.634768,2.223,122.872,0.28866,0.0194005,0.967506,-3.06704,2.07848,-0.0312805,0.114656,3.36204,1.22361,0,4.7,0,12597,49.455,24.365,12049.7
3344410869,0.634768,2.223,122.862,0.222835,0.0219568,0.967012,-3.30778,2.24996,-0.0262039,0.00806211,2.60509,0.680133,0,4.7,0,12597,49.455,24.365,12049.7
3344511234,0.634768,2.223,122.862,0.168104,0.0240108,0.966596,-3.48914,2.37024,-0.0225631,-0.0417145,1.91316,0.50804,0,4.7,0,12597,49.453,24.095,11915.7
3344611590,0.634768,2.223,122.868,0.127961,0.0246053,0.966217,-3.62307,2.46668,-0.0280233,-0.03155,1.46875,0.239741,0,4.7,0,12597,49.453,24.095,11915.7
3344711935,0.634768,2.223,122.87,0.0994069,0.023661,0.965717,-3.7317,2.54758,-0.0235455,0.0600466,1.23425,0.207819,0,4.7,0,12597,49.453,24.095,11915.7
3344812325,0.634768,2.223,122.87,0.0763651,0.0239146,0.965473,-3.80075,2.60506,-0.0296486,0.0541298,0.793135,-0.0444999,0,4.7,0,12597,49.453,24.095,11915.7
3344912669,0.634767,2.223,122.872,0.0608964,0.0234034,0.965407,-3.85177,2.63986,-0.0309801,-0.0301289,0.574598,0.230075,0,4.7,0,12597,49.453,24.095,11915.7
3345013011,0.634767,2.223,122.873,0.0517649,0.0232186,0.965136,-3.89341,2.67499,-0.0268448,-0.00453913,0.555379,-0.0694552,0,4.7,0,12597,49.453,24.095,11915.7
3345113322,0.634767,2.223,122.88,0.0450516,0.0225576,0.96496,-3.92017,2.69233,-0.0280901,-0.0191536,0.367451,-0.113565,0,4.7,0,12597,49.453,24.095,11915.7
3345213742,0.634767,2.223,122.883,0.0438052,0.0221102,0.964531,-3.93267,2.70776,-0.0320948,0.0297425,0.311516,-0.211483,0,-1.8,0,12597,49.453,24.095,11915.7
3345314120,0.634767,2.223,122.891,0.0257187,0.0208193,0.966072,-3.95401,2.72082,-0.0375817,-0.0308764,0.347211,-0.0357244,0,-1.8,0,12597,49.453,24.095,11915.7
3345414508,0.634767,2.223,122.896,-0.157969,0.0163501,0.962063,-3.94917,2.71547,0.0217667,0.0460962,-0.155419,0.639377,0,-1.8,0,12597,49.453,24.095,11915.7
3345514883,0.634767,2.223,122.904,-0.331889,0.00971179,0.961242,-3.74544,2.59238,-0.00365088,0.142091,-2.53903,-0.129845,0,-1.8,0,12597,49.428,25.693,12699.5
3345615252,0.634767,2.223,122.899,-0.437047,0.00509291,0.961963,-3.42169,2.38365,-0.0636158,0.162265,-3.59642,1.23785,0,-1.8,0,12597,49.428,25.693,12699.5
3345715565,0.634767,2.223,122.889,-0.490836,0.00223652,0.963651,-2.98893,2.11137,-0.086188,0.246326,-4.32815,2.37098,0,-1.8,0,12597,49.428,25.693,12699.5
3345815838,0.634767,2.223,122.875,-0.505635,0.00157881,0.964515,-2.50916,1.80719,-0.0837401,0.27291,-4.72089,2.50941,0,-1.8,0,12597,49.428,25.693,12699.5
3345916093,0.634767,2.223,122.857,-0.496119,0.00404317,0.963627,-2.03288,1.4996,-0.0775651,0.245616,-4.6624,2.67283,0,-1.8,0,12597,49.428,25.693,12699.5
3346016298,0.634767,2.223,122.835,-0.484159,0.00710519,0.962568,-1.57143,1.20582,-0.058685,0.292371,-4.3828,2.67233,0,-1.8,0,12597,49.428,25.693,12699.5
3346116533,0.634767,2.223,122.827,-0.472914,0.0123574,0.960145,-1.13676,0.914181,-0.054846,0.167964,-4.31386,2.36212,0,-1.8,0,12597,49.428,25.693,12699.5
3346216810,0.634767,2.223,122.821,-0.45894,0.0174472,0.958515,-0.714196,0.62436,-0.0532759,0.126096,-4.21487,2.17898,0,-1.8,0,12597,49.428,25.693,12699.5
3346317165,0.634767,2.223,122.814,-0.444218,0.0226899,0.957017,-0.316322,0.338552,-0.0406972,0.0359402,-4.00477,2.15892,0,-1.8,0,12597,49.428,25.693,12699.5
3346417464,0.634767,2.223,122.806,-0.403684,0.0270455,0.956662,0.0638547,0.065017,-0.0320286,0.0342372,-3.90168,1.81097,0,-1.8,0,12597,49.428,25.693,12699.5
3346517811,0.634767,2.223,122.801,-0.342486,0.0319509,0.956164,0.388544,-0.175961,-0.0191172,0.00553404,-3.27163,1.48989,0,-1.8,0,12597,49.255,28.581,14077.6
3346618168,0.634767,2.223,122.81,-0.28083,0.0340411,0.956596,0.64138,-0.376539,-0.00748143,-0.0251429,-2.68064,0.828987,0,-1.8,0,12597,49.255,28.581,14077.6
3346718441,0.634767,2.223,122.819,-0.226866,0.0327126,0.957585,0.832463,-0.537911,0.00289527,-0.107777,-2.1101,0.509759,0,-1.8,0,12597,49.255,28.581,14077.6
3346818718,0.634767,2.223,122.828,-0.182088,0.029462,0.958753,0.970069,-0.666351,0.00772561,-0.123924,-1.49441,0.243716,0,-1.8,0,12597,49.255,28.581,14077.6
3346919070,0.634767,2.223,122.84,-0.149007,0.0250994,0.960034,1.07374,-0.764237,0.00829602,-0.0552418,-1.11379,0.0514855,0,-1.8,0,12597,49.255,28.581,14077.6
3347019777,0.634767,2.223,122.855,-0.121855,0.0215489,0.961002,1.15915,-0.850208,0.00974718,-0.0499159,-0.773584,-0.16093,0,-1.8,0,12597,49.255,28.581,14077.6
3347124370,0.634767,2.223,122.853,-0.103955,0.0176496,0.961823,1.19614,-0.899617,0.00080238,-0.0259623,-0.492082,-0.240153,0,-1.8,0,12597,49.255,28.581,14077.6
3347224883,0.634767,2.223,122.848,-0.0946036,0.0124431,0.962206,1.21773,-0.933413,-0.0115315,0.0396703,-0.337827,-0.0434065,0,2,0,12597,49.255,28.581,14077.6
3347325287,0.634767,2.223,122.847,-0.0541693,0.0102934,0.960169,1.24115,-0.955184,-0.0111493,0.127336,-0.315316,0.511708,0,2,0,12597,49.255,28.581,14077.6
3347425705,0.634767,2.223,122.852,0.169755,0.00705184,0.963909,1.2064,-0.933461,0.0610605,0.165746,0.793472,0.306154,0,2,0,12597,49.255,28.581,14077.6
3347526111,0.634767,2.223,122.849,0.346585,0.00575532,0.9647,0.946198,-0.753577,0.00823793,0.175775,3.38036,-0.0805712,0,2,0,12554,49.324,27.031,13332.8
3347626509,0.634767,2.223,122.836,0.446939,0.00175956,0.963113,0.564019,-0.492844,-0.0740884,0.100997,4.20376,1.82196,0,2,0,12554,49.324,27.031,13332.8
3347726909,0.634767,2.223,122.835,0.488009,-0.00107393,0.96179,0.0903575,-0.144536,-0.0850515,0.272876,5.11047,2.45762,0,2,0,12554,49.324,27.031,13332.8
3347828196,0.634767,2.223,122.843,0.446008,-0.000665531,0.960837,-0.413182,0.203893,-0.0995881,0.093211,5.16156,2.5472,0,2,0,12554,49.324,27.031,13332.8
3347928491,0.634767,2.223,122.834,0.360541,0.0017308,0.962183,-0.847157,0.526399,-0.0632129,0.265783,4.44385,2.23005,0,2,0,12554,49.324,27.031,13332.8
3348028772,0.634767,2.223,122.818,0.264244,0.00873358,0.964424,-1.18942,0.770182,-0.0433972,0.106778,3.54963,1.24993,0,2,0,12554,49.324,27.031,13332.8
3348129108,0.634767,2.223,122.818,0.171514,0.0137542,0.965065,-1.44343,0.953391,-0.0204253,0.121053,2.59392,0.703127,0,2,0,12554,49.324,27.031,13332.8
3348229457,0.634767,2.223,122.819,0.101085,0.0170032,0.965326,-1.62489,1.07554,-0.0116173,0.016364,1.66627,0.277765,0,2,0,12554,49.324,27.031,13332.8
3348329853,0.634767,2.223,122.808,0.0512299,0.0166631,0.964752,-1.74702,1.14767,-0.0159554,0.00165462,1.04715,0.325717,0,2,0,12554,49.324,27.031,13332.8
3348430201,0.634767,2.223,122.801,0.0191431,0.0178253,0.96454,-1.82478,1.20363,-0.00986198,0.0273233,0.648085,-0.0665662,0,2,0,12554,49.324,27.031,13332.8
3348530581,0.634767,2.223,122.791,-0.000578874,0.0180432,0.964326,-1.87537,1.2298,-0.0237485,-0.0298121,0.313656,0.0499012,0,2,0,12554,49.227,29.04,14295.5
3348630935,0.634767,2.223,122.779,-0.0122835,0.0169675,0.963982,-1.9105,1.25206,-0.017118,0.025745,0.161081,0.448576,0,2,0,12554,49.227,29.04,14295.5
3348731285,0.634767,2.223,122.765,-0.0202807,0.0155517,0.963887,-1.92678,1.26367,-0.0033677,0.0154705,0.0386111,0.166157,0,2,0,12554,49.227,29.04,14295.5
3348831619,0.634767,2.223,122.755,-0.0251014,0.01353,0.963641,-1.93989,1.2733,-0.00983293,0.0370598,0.0530683,0.231486,0,2,0,12554,49.227,29.04,14295.5
3348931973,0.634767,2.223,122.755,-0.0270152,0.0123748,0.963503,-1.94081,1.27126,0.00197885,0.0319123,-0.0340768,0.144928,0,2,0,12554,49.227,29.04,14295.5
3349032342,0.634767,2.223,122.744,-0.0256843,0.011744,0.963468,-1.93537,1.27247,0.00510512,0.0586086,-0.0407471,0.165121,0,2,0,12554,49.227,29.04,14295.5
3349132672,0.634767,2.223,122.741,-0.0234672,0.0114946,0.96356,-1.92407,1.26346,0.00432286,0.0233251,-0.0696976,0.116246,0,2,0,12554,49.227,29.04,14295.5
3349233041,0.634767,2.223,122.743,-0.0217836,0.0118445,0.96366,-1.91003,1.26182,0.00470313,0.103555,-0.0883143,0.131101,0,-3.4,0,12554,49.227,29.04,14295.5
3349333416,0.634767,2.223,122.745,-0.0347634,0.0132469,0.965533,-1.89124,1.25864,0.0129194,0.133138,-0.0631451,0.0979298,0,-3.4,0,12554,49.227,29.04,14295.5
3349433781,0.634767,2.223,122.744,-0.178811,0.0128929,0.963195,-1.86238,1.24141,0.045585,0.0671583,-0.477616,0.0904918,0,-3.4,0,12554,49.227,29.04,14295.5
3349534117,0.634767,2.223,122.751,-0.318654,0.0118557,0.961654,-1.68296,1.11974,0.0139636,0.0430339,-2.18702,0.116358,0,-3.4,0,12554,49.227,29.04,14295.5
3349634472,0.634767,2.223,122.752,-0.411073,0.0123082,0.960488,-1.39281,0.919211,-0.00857004,0.0409018,-3.27806,1.28293,0,-3.4,0,12511,49.26,27.48,13536.6
3349734819,0.634767,2.223,122.75,-0.457567,0.0118946,0.959841,-1.01352,0.65946,-0.0107587,0.0850178,-3.9315,2.08134,0,-3.4,0,12511,49.26,27.48,13536.6
3349835166,0.634767,2.223,122.746,-0.471586,0.0120063,0.959439,-0.616086,0.382776,-0.00425155,0.025965,-4.0963,2.23449,0,-3.4,0,12511,49.26,27.48,13536.6
3349935498,0.634767,2.223,122.731,-0.467412,0.0103607,0.960034,-0.211529,0.100326,0.00276622,0.053625,-4.15761,2.17008,0,-3.4,0,12511,49.26,27.48,13536.6
3350037093,0.634767,2.223,122.719,-0.458618,0.00905678,0.960573,0.179309,-0.167724,0.006824,0.127573,-4.09835,1.94176,0,-3.4,0,12511,49.26,27.48,13536.6
3350141850,0.634767,2.223,122.725,-0.448024,0.00874536,0.960559,0.636935,-0.490684,0.0163109,0.0766005,-3.80926,2.22271,0,-3.4,0,12511,49.26,27.48,13536.6
3350243682,0.634767,2.223,122.736,-0.434404,0.00862229,0.960371,0.9982,-0.734121,0.0248262,0.153689,-3.68603,1.68117,0,-3.4,0,12511,49.26,27.48,13536.6
3350344909,0.634767,2.223,122.743,-0.41298,0.00869352,0.959961,1.34207,-0.987369,0.0342206,-0.0147771,-3.69962,1.56902,0,-3.4,0,12511,49.26,27.48,13536.6
3350445398,0.634767,2.223,122.753,-0.36136,0.00708947,0.960716,1.66177,-1.20802,0.0446006,0.120015,-3.21018,1.51324,0,-3.4,0,12511,49.26,27.48,13536.6
3350545833,0.634767,2.223,122.768,-0.308027,0.0071231,0.960914,1.91631,-1.37853,0.068004,0.13471,-2.5784,0.922629,0,-3.4,0,12511,49.26,27.48,13536.6
3350646239,0.634767,2.223,122.783,-0.258357,0.00959679,0.96096,2.10773,-1.5206,0.0616417,0.0713848,-2.04795,0.297892,0,-3.4,0,12511,49.233,27.492,13535.1
3350746596,0.634767,2.223,122.793,-0.2171,0.00849745,0.961858,2.25805,-1.63771,0.0563612,0.00250593,-1.64177,0.426339,0,-3.4,0,12511,49.233,27.492,13535.1
3350846957,0.634767,2.223,122.803,-0.186698,0.00560843,0.96278,2.37123,-1.7146,0.0525166,0.160477,-1.15666,-0.0389511,0,-3.4,0,12511,49.233,27.492,13535.1
3350947358,0.634767,2.223,122.819,-0.164857,0.00164288,0.963347,2.46169,-1.77908,0.0425443,0.12283,-0.982218,-0.103737,0,-3.4,0,12511,49.233,27.492,13535.1
3351047726,0.634767,2.223,122.832,-0.145442,-0.000919551,0.963899,2.52524,-1.82101,0.0271488,0.137319,-0.630961,0.0195509,0,-3.4,0,12511,49.233,27.492,13535.1
3351148102,0.634767,2.223,122.837,-0.128784,-0.00192254,0.963875,2.5689,-1.84496,0.0220043,0.182913,-0.403779,0.0483357,0,-3.4,0,12511,49.233,27.492,13535.1
3351248525,0.634767,2.223,122.841,-0.120913,-0.00495647,0.963745,2.60056,-1.86168,0.0160454,0.215836,-0.377151,-0.0771998,0,5,0,12511,49.233,27.492,13535.1
3351348903,0.634767,2.223,122.847,-0.0741142,-0.00490793,0.960707,2.62838,-1.87212,0.00999876,0.199966,-0.336614,0.49019,0,5,0,12511,49.233,27.492,13535.1
3351449316,0.634767,2.223,122.851,0.165659,-0.00306064,0.961681,2.59618,-1.84906,0.0704681,0.146557,0.697088,0.61186,0,5,0,12511,49.233,27.492,13535.1
3351549617,0.634767,2.223,122.872,0.351045,0.00345161,0.963607,2.33374,-1.65221,0.0572147,0.238293,3.42453,0.189084,0,5,0,12511,49.233,27.492,13535.1
3351650034,0.634767,2.223,122.876,0.456913,0.0163642,0.968119,1.95352,-1.38165,-0.0437453,0.138806,4.5514,1.24175,0,5,0,12511,49.233,27.489,13533.7
3351750359,0.634767,2.223,122.874,0.510271,0.0274993,0.972351,1.45277,-1.05044,-0.0872152,-0.0259378,5.20991,2.66003,0,5,0,12511,49.233,27.489,13533.7
3351851731,0.634767,2.223,122.864,0.525372,0.0353953,0.974429,0.908051,-0.700773,-0.124271,-0.11669,5.55115,2.85952,0,5,0,12511,49.233,27.489,13533.7
3351957976,0.634767,2.223,122.841,0.519441,0.0330161,0.972035,0.350275,-0.347637,-0.14744,-0.160244,5.57477,2.95882,0,5,0,12511,49.233,27.489,13533.7
3352058338,0.634767,2.223,122.823,0.504907,0.0198546,0.967435,-0.202381,0.00397491,-0.137232,-0.198597,5.30691,3.42245,0,5,0,12511,49.233,27.489,13533.7
3352158695,0.634767,2.223,122.807,0.484265,0.00690528,0.963416,-0.741721,0.369961,-0.106416,-0.0304776,5.2019,3.40413,0,5,0,12511,49.233,27.489,13533.7
3352259052,0.634767,2.223,122.8,0.457477,-0.00377802,0.96107,-1.25216,0.735304,-0.0642108,0.110674,5.03773,2.93358,0,5,0,12511,49.233,27.489,13533.7
3352359449,0.634767,2.223,122.8,0.435115,-0.00990633,0.958566,-1.70806,1.08814,-0.0309278,0.31106,4.67814,2.48202,0,5,0,12511,49.233,27.489,13533.7
3352459784,0.634767,2.223,122.802,0.417082,-0.00874009,0.958853,-2.13132,1.41522,-0.0153852,0.267352,4.45013,2.12071,0,5,0,12511,49.233,27.489,13533.7
3352560096,0.634767,2.223,122.806,0.393542,-0.00433282,0.959871,-2.5284,1.72579,0.00183654,0.289428,4.25558,1.89783,0,5,0,12511,49.233,27.489,13533.7
3352660442,0.634767,2.223,122.816,0.336064,0.000969753,0.961328,-2.95234,2.05773,0.0147577,0.215297,3.65686,1.5249,0,5,0,12511,49.155,29.223,14364.6
3352760810,0.634767,2.223,122.822,0.271838,0.00611384,0.962868,-3.22991,2.26607,0.0291259,0.115488,2.94365,0.945964,0,5,0,12511,49.155,29.223,14364.6
3352861169,0.634767,2.223,122.831,0.21036,0.00924381,0.963513,-3.44909,2.43407,0.0250272,0.0963943,2.36893,0.45864,0,5,0,12511,49.155,29.223,14364.6
3352961525,0.634767,2.223,122.84,0.160525,0.0107992,0.963495,-3.60687,2.55718,0.0185395,0.0619384,1.78326,0.257815,0,5,0,12511,49.155,29.223,14364.6
3353061874,0.634767,2.223,122.847,0.123223,0.0110996,0.963858,-3.7204,2.63943,0.0128316,0.0229429,1.2697,0.0791212,0,5,0,12511,49.155,29.223,14364.6
3353162219,0.634767,2.223,122.855,0.098603,0.0115742,0.964142,-3.80471,2.71522,0.0146103,0.0932608,1.02508,-0.0429387,0,5,0,12511,49.155,29.223,14364.6
3353262580,0.634767,2.223,122.856,0.0805985,0.0137571,0.96443,-3.86507,2.77573,-0.0050418,0.109257,0.7721,0.076673,0,0.6,0,12511,49.155,29.223,14364.6
3353362954,0.634766,2.223,122.858,0.0476617,0.012566,0.966912,-3.91217,2.8181,-0.00202905,0.0310936,0.662239,0.388318,0,0.6,0,12511,49.155,29.223,14364.6
3353463321,0.634766,2.223,122.86,-0.161091,0.0110913,0.965013,-3.89375,2.82128,0.0597154,0.0826825,-0.487347,0.206797,0,0.6,0,12511,49.155,29.223,14364.6
3353563673,0.634766,2.223,122.872,-0.350319,0.0110449,0.963594,-3.65863,2.67705,0.0140377,0.0789044,-2.95664,-0.124545,0,0.6,0,12511,49.155,29.223,14364.6
3353664083,0.634766,2.223,122.88,-0.458418,0.0109416,0.964272,-3.31019,2.43645,-0.0578541,-0.025898,-3.94886,1.5396,0,0.6,0,12511,49.339,24.736,12204.5
3353764424,0.634766,2.223,122.87,-0.508452,0.0132303,0.963656,-2.86363,2.13519,-0.0688561,0.0536949,-4.54387,2.50358,0,0.6,0,12511,49.339,24.736,12204.5
3353865576,0.634766,2.223,122.856,-0.511212,0.0203013,0.9615,-2.38623,1.80856,-0.0728893,-0.0192352,-4.79458,2.66037,0,0.6,0,12511,49.339,24.736,12204.5
3353967314,0.634766,2.223,122.843,-0.449791,0.0256673,0.960637,-1.92868,1.47254,-0.0586553,-0.099389,-4.67127,2.5573,0,0.6,0,12511,49.339,24.736,12204.5
3354069002,0.634766,2.223,122.824,-0.363855,0.0265515,0.961158,-1.54878,1.19289,-0.0293749,-0.0884206,-3.78938,1.97812,0,0.6,0,12511,49.339,24.736,12204.5
3354169411,0.634766,2.223,122.819,-0.281458,0.0251337,0.962185,-1.25666,0.972768,-0.02047,-0.0903348,-3.07641,0.908806,0,0.6,0,12511,49.339,24.736,12204.5
3354271997,0.634766,2.223,122.812,-0.206789,0.0249651,0.962424,-1.02987,0.806948,-0.0139471,-0.049082,-2.29543,0.45088,0,0.6,0,12511,49.339,24.736,12204.5
3354372397,0.634766,2.223,122.803,-0.149573,0.0230668,0.962766,-0.880107,0.680764,-0.0165164,-0.112098,-1.50642,0.194808,0,0.6,0,12511,49.339,24.736,12204.5
3354472744,0.634766,2.223,122.808,-0.108152,0.0201536,0.962876,-0.775334,0.587629,-0.00822886,-0.115701,-0.979615,0.0703337,0,0.6,0,12511,49.339,24.736,12204.5
3354573094,0.634766,2.223,122.808,-0.0800983,0.0177041,0.96291,-0.697997,0.521977,-0.0123415,-0.0565855,-0.687189,-0.0735475,0,0.6,0,12511,49.339,24.736,12204.5
3354673439,0.634766,2.223,122.803,-0.0596088,0.015111,0.962952,-0.637013,0.474096,-0.00889371,0.0286504,-0.447001,0.0203111,0,0.6,0,12511,49.339,24.736,12204.5
3354773781,0.634766,2.223,122.797,-0.0464673,0.0141552,0.96274,-0.594228,0.442985,-0.00901497,0.0376775,-0.246641,0.113357,0,0.6,0,12511,49.339,24.736,12204.5
3354874126,0.634766,2.223,122.789,-0.0377737,0.0129973,0.962562,-0.565597,0.419232,-0.0133892,0.0240639,-0.152569,-0.244671,0,0.6,0,12511,49.339,24.736,12204.5
3354974479,0.634766,2.223,122.781,-0.0333029,0.0109998,0.962626,-0.559101,0.39703,-0.0120711,-0.0509665,-0.0236069,0.133948,0,0.6,0,12511,49.339,24.736,12204.5
3355074846,0.634766,2.223,122.77,-0.0318793,0.00886663,0.962547,-0.557203,0.391449,-0.00660229,0.0378533,0.0212718,-0.0997062,0,0.6,0,12511,49.339,24.736,12204.5
3355175201,0.634766,2.223,122.766,-0.0303261,0.00904899,0.962771,-0.551385,0.391871,0.000304569,0.0822051,-0.0187956,0.130037,0,0.6,0,12511,49.339,24.736,12204.5
3355275574,0.634766,2.223,122.762,-0.0302319,0.0109563,0.962857,-0.557236,0.395811,0.00763207,0.03088,0.0793075,0.0780461,0,-2.4,0,12511,49.339,24.736,12204.5
3355375912,0.634766,2.223,122.768,-0.0466889,0.0115891,0.964579,-0.563862,0.395814,0.0167109,0.0185658,0.0246654,0.0910015,0,-2.4,0,12511,49.339,24.736,12204.5
3355476293,0.634766,2.223,122.771,-0.177899,0.0107984,0.962498,-0.558457,0.386864,0.0468503,0.0612104,-0.429954,-0.065268,0,-2.4,0,12511,49.339,24.736,12204.5
3355576690,0.634766,2.223,122.773,-0.303121,0.00788604,0.961835,-0.424371,0.289072,-0.00689697,0.0499666,-1.91459,0.0685717,0,-2.4,0,12511,49.339,24.736,12204.5
3355677042,0.634766,2.223,122.767,-0.387733,0.00677719,0.9617,-0.177837,0.124342,-0.0175358,0.123726,-2.79407,1.43876,0,-2.4,0,12511,49.339,24.736,12204.5
3355777434,0.634766,2.223,122.765,-0.426866,0.00679315,0.961993,0.123977,-0.0862335,-0.0165829,0.0897197,-3.39792,1.61956,0,-2.4,0,12511,49.126,27.791,13652.6
3355877801,0.634766,2.223,122.759,-0.437665,0.00756864,0.961615,0.458689,-0.316662,-0.00427966,0.0625095,-3.67799,1.76917,0,-2.4,0,12511,49.126,27.791,13652.6
3355979682,0.634766,2.223,122.753,-0.405281,0.00934445,0.961379,0.793573,-0.549824,-0.00535916,0.0936605,-3.76348,1.67869,0,-2.4,0,12511,49.126,27.791,13652.6
3356085196,0.634766,2.223,122.746,-0.349613,0.0114375,0.960577,1.14049,-0.798882,0.0186196,0.0106585,-3.16743,1.35385,0,-2.4,0,12511,49.126,27.791,13652.6
3356185561,0.634766,2.223,122.744,-0.294928,0.0105711,0.960879,1.36257,-0.963698,0.0186397,0.0563595,-2.5542,1.01196,0,-2.4,0,12511,49.126,27.791,13652.6
3356285972,0.634766,2.223,122.753,-0.239123,0.00757707,0.96183,1.54251,-1.09191,0.0374876,0.0950139,-2.01464,0.746177,0,-2.4,0,12511,49.126,27.791,13652.6
3356386333,0.634766,2.223,122.765,-0.198481,0.00641802,0.962126,1.67472,-1.18816,0.0432688,0.0487233,-1.54152,0.189591,0,-2.4,0,12511,49.126,27.791,13652.6
3356486674,0.634766,2.223,122.781,-0.165578,0.0020175,0.963001,1.77125,-1.26004,0.0388483,0.0854992,-1.11929,0.0786325,0,-2.4,0,12511,49.126,27.791,13652.6
3356587019,0.634766,2.223,122.794,-0.141191,-0.000699986,0.963426,1.85457,-1.30577,0.038453,0.160042,-0.859795,0.156898,0,-2.4,0,12511,49.126,27.791,13652.6
3356687379,0.634766,2.223,122.81,-0.119632,-0.00324483,0.963381,1.92281,-1.34349,0.0384314,0.203518,-0.699431,-0.0115627,0,-2.4,0,12511,49.126,27.791,13652.6
3356787735,0.634766,2.223,122.818,-0.105338,-0.00362692,0.963332,1.96769,-1.36576,0.0399814,0.191747,-0.436823,-0.250191,0,-2.4,0,12511,49.132,26.225,12884.9
3356888083,0.634766,2.223,122.835,-0.0951477,-0.00145865,0.962986,1.99723,-1.38008,0.0236656,0.175422,-0.301871,-0.218899,0,-2.4,0,12511,49.132,26.225,12884.9
3356988394,0.634766,2.223,122.84,-0.090304,0.000965696,0.962793,2.02668,-1.39255,0.0110566,0.163464,-0.363809,-0.190978,0,-2.4,0,12511,49.132,26.225,12884.9
3357088753,0.634766,2.223,122.844,-0.0857357,0.00287689,0.962636,2.03796,-1.39229,-0.00236408,0.133859,-0.16337,-0.103361,0,-2.4,0,12511,49.132,26.225,12884.9
3357189092,0.634766,2.223,122.84,-0.0815055,0.00191303,0.962375,2.04091,-1.39391,-0.0119585,0.148672,-0.126839,-0.0197804,0,-2.4,0,12511,49.132,26.225,12884.9
3357289562,0.634766,2.223,122.834,-0.0786368,0.00107114,0.96261,2.04922,-1.3958,-0.0127708,0.132758,-0.194823,-0.140667,0,-2.9,0,12511,49.132,26.225,12884.9
3357389857,0.634766,2.223,122.827,-0.0967348,0.000738993,0.96265,2.04357,-1.3817,-0.0108262,0.190015,0.152603,0.788939,0,-2.9,0,12511,49.132,26.225,12884.9
3357491816,0.634767,2.223,122.82,-0.132603,0.00409859,0.962519,2.0693,-1.38692,-0.00425789,0.161202,-0.456014,-0.468596,0,-2.9,0,12511,49.132,26.225,12884.9
3357597139,0.634767,2.223,122.814,-0.157423,0.00752172,0.961421,2.11287,-1.41498,-0.0480022,0.1184,-0.632695,0.173371,0,-2.9,0,12511,49.132,26.225,12884.9
3357697514,0.634767,2.223,122.809,-0.171343,0.00946458,0.961998,2.16662,-1.45845,-0.0473417,0.0723326,-0.787876,0.0905392,0,-2.9,0,12511,49.132,26.225,12884.9
3357797881,0.634767,2.223,122.803,-0.170165,0.00996452,0.962645,2.23619,-1.50709,-0.043712,0.0791854,-0.883522,0.428803,0,-2.9,0,12511,49.132,26.225,12884.9
3357898237,0.634767,2.223,122.8,-0.162908,0.0146353,0.962512,2.30341,-1.55695,-0.0306967,0.067457,-0.901119,0.156268,0,-2.9,0,12511,49.132,26.225,12884.9
3357998586,0.634767,2.223,122.792,-0.150191,0.013745,0.962671,2.34766,-1.60527,-0.0250399,-0.0142322,-0.680244,0.213056,0,-2.9,0,12511,49.132,26.225,12884.9
3358098944,0.634767,2.223,122.79,-0.137105,0.0108191,0.963164,2.38785,-1.64277,-0.00389442,0.0505777,-0.559428,0.245606,0,-2.9,0,12511,49.132,26.225,12884.9
3358199290,0.634767,2.223,122.791,-0.127803,0.00793719,0.963626,2.42926,-1.66002,0.000763303,0.158911,-0.471884,0.104576,0,-2.9,0,12511,49.132,26.225,12884.9
3358299646,0.634767,2.223,122.79,-0.120841,0.00371828,0.963908,2.46532,-1.66975,0.00067878,0.221774,-0.400268,0.142058,0,-2.9,0,12467,49.161,26.616,13084.7
3358400085,0.634767,2.223,122.789,-0.116898,0.0052585,0.964269,2.49908,-1.67455,-0.00403469,0.220231,-0.339177,0.0244858,0,-2.9,0,12467,49.161,26.616,13084.7
3358500442,0.634767,2.223,122.786,-0.11011,0.00765592,0.963981,2.52406,-1.68094,-0.00213264,0.0983974,-0.254716,0.062785,0,-2.9,0,12467,49.161,26.616,13084.7
3358600738,0.634767,2.223,122.782,-0.105892,0.0122045,0.96328,2.55063,-1.68583,0.00116136,0.177205,-0.239361,0.184848,0,-2.9,0,12467,49.161,26.616,13084.7
3358701107,0.634767,2.223,122.783,-0.101272,0.0145063,0.962551,2.56633,-1.68914,-0.00296103,0.119852,-0.141386,0.0726743,0,-2.9,0,12467,49.161,26.616,13084.7
3358801427,0.634767,2.223,122.789,-0.0982119,0.0158416,0.962384,2.57679,-1.69266,0.00153675,0.0733281,-0.116924,0.0334966,0,-2.9,0,12467,49.161,26.616,13084.7
3358901797,0.634767,2.223,122.795,-0.0965042,0.0161161,0.962056,2.58949,-1.70733,0.0013294,0.0156893,-0.203625,-0.0751597,0,-2.9,0,12467,49.161,26.616,13084.7
3359002169,0.634767,2.223,122.794,-0.093161,0.0168031,0.961631,2.60728,-1.71661,0.00531456,0.0982767,-0.218891,-0.144229,0,-2.9,0,12467,49.161,26.616,13084.7
3359102539,0.634767,2.223,122.797,-0.0905159,0.017358,0.96171,2.61414,-1.72178,-0.00429112,0.0489972,-0.103858,-0.105192,0,-2.9,0,12467,49.161,26.616,13084.7
3359202877,0.634767,2.223,122.804,-0.088148,0.0166855,0.961581,2.63307,-1.73062,-0.00399178,0.10232,-0.190911,0.128464,0,-2.9,0,12467,49.161,26.616,13084.7
3359303285,0.634767,2.223,122.804,-0.0856379,0.0199734,0.961552,2.62858,-1.73133,-0.000749829,0.0108254,0.0196119,0.12257,0,-0.2,0,12467,49.285,24.624,12135.9
3359403642,0.634767,2.223,122.806,-0.063313,0.0202018,0.959494,2.62945,-1.73505,0.0116066,0.0032956,-0.0577016,0.547368,0,-0.2,0,12467,49.285,24.624,12135.9
3359504040,0.634767,2.223,122.821,0.135239,0.0191463,0.963427,2.58609,-1.68697,0.0889048,0.190861,0.991532,0.444297,0,-0.2,0,12467,49.285,24.624,12135.9
3359604389,0.634767,2.223,122.842,0.305543,0.0280985,0.967662,2.33479,-1.49701,0.0579829,0.108517,3.33046,-0.0745912,0,-0.2,0,12467,49.285,24.624,12135.9
3359704732,0.634767,2.223,122.842,0.36558,0.0383384,0.969924,1.98604,-1.25931,-0.037658,-0.0111836,4.05969,1.1607,0,-0.2,0,12467,49.285,24.624,12135.9
3359805073,0.634767,2.223,122.839,0.36204,0.0469019,0.970433,1.5936,-1.01208,-0.0523613,-0.126438,4.36936,1.29745,0,-0.2,0,12467,49.285,24.624,12135.9
3359905397,0.634767,2.223,122.832,0.313245,0.0498582,0.969256,1.21346,-0.791747,-0.0627192,-0.342793,4.07826,1.246,0,-0.2,0,12467,49.285,24.624,12135.9
3360005775,0.634767,2.223,122.825,0.238466,0.0402445,0.964213,0.908421,-0.61608,-0.0685954,-0.263225,3.25378,0.916618,0,-0.2,0,12467,49.285,24.624,12135.9
3360106116,0.634767,2.223,122.811,0.16262,0.0225292,0.959736,0.680039,-0.472515,-0.0679855,-0.0728454,2.48993,0.255541,0,-0.2,0,12467,49.285,24.624,12135.9
3360206470,0.634767,2.223,122.805,0.0994917,0.00584064,0.95841,0.51287,-0.339643,-0.0609314,0.200352,1.89744,0.482015,0,-0.2,0,12467,49.285,24.624,12135.9
3360306781,0.634767,2.223,122.805,0.0441448,-0.00259687,0.959478,0.392438,-0.234324,-0.0276017,0.226186,1.35764,0.244864,0,-0.2,0,12467,49.335,24.414,12044.6
3360407153,0.634767,2.223,122.804,0.00460598,0.00242464,0.961533,0.330391,-0.157649,-0.00852601,0.261779,0.800505,0.0407893,0,-0.2,0,12467,49.335,24.414,12044.6
3360507567,0.634767,2.223,122.81,-0.0217148,0.00842969,0.962734,0.285993,-0.100496,-0.00938306,0.285321,0.514953,0.0315836,0,-0.2,0,12467,49.335,24.414,12044.6
3360607882,0.634767,2.223,122.816,-0.0389851,0.0126744,0.962982,0.268994,-0.0649654,-0.00404968,0.234049,0.207087,-0.0538523,0,-0.2,0,12467,49.335,24.414,12044.6
3360708292,0.634767,2.223,122.819,-0.0502582,0.0181514,0.962989,0.258391,-0.0427402,0.00345157,0.0819813,0.0987697,-0.0717992,0,-0.2,0,12467,49.335,24.414,12044.6
3360808687,0.634767,2.223,122.822,-0.0573635,0.0250219,0.962875,0.249614,-0.0409525,0.002384,0.00511603,-0.00427583,-0.0137617,0,-0.2,0,12467,49.335,24.414,12044.6
3360908996,0.634767,2.223,122.822,-0.05985,0.03,0.962569,0.252031,-0.0359106,-0.00682421,0.0508501,-0.0207093,0.0686732,0,-0.2,0,12467,49.335,24.414,12044.6
3361009290,0.634767,2.223,122.815,-0.0594243,0.03459,0.962594,0.253996,-0.0415509,-0.00241772,-0.0762309,-0.0721348,-0.113188,0,-0.2,0,12467,49.335,24.414,12044.6
3361109635,0.634767,2.223,122.802,-0.0561852,0.037692,0.962734,0.250282,-0.0581505,-0.0155051,-0.177334,-0.0365199,-0.160201,0,-0.2,0,12467,49.335,24.414,12044.6
3361209988,0.634767,2.223,122.784,-0.0540902,0.0357925,0.963323,0.249596,-0.0696448,-0.0201357,-0.121489,-0.0251049,0.155333,0,-0.2,0,12467,49.335,24.414,12044.6
3361310377,0.634767,2.223,122.77,-0.0521664,0.0327526,0.963331,0.245285,-0.0833993,-0.0197363,-0.0893573,0.0364029,0.0985582,0,2.4,0,12467,49.335,24.414,12044.6
3361410727,0.634767,2.223,122.756,-0.0183522,0.0296445,0.961635,0.250069,-0.0965147,-0.00245695,-0.106365,-0.0553582,0.52295,0,2.4,0,12467,49.351,23.872,11781.1
3361511139,0.634767,2.223,122.758,0.162784,0.0260692,0.966313,0.209931,-0.0820817,0.0520194,-0.0744481,0.842611,0.396672,0,2.4,0,12467,49.351,23.872,11781.1
3361611508,0.634767,2.223,122.762,0.305271,0.0230623,0.967899,-0.00419861,0.0680791,0.00881851,-0.00644026,2.92407,0.020873,0,2.4,0,12467,49.351,23.872,11781.1
3361711870,0.634767,2.223,122.767,0.370395,0.0198579,0.96678,-0.312272,0.281831,-0.0391648,-0.0180452,3.80807,1.09915,0,2.4,0,12467,49.351,23.872,11781.1
3361812268,0.634767,2.223,122.77,0.358458,0.0180127,0.965247,-0.671152,0.536417,-0.0423891,0.0512148,4.1026,1.55146,0,2.4,0,12467,49.351,23.872,11781.1
3361912630,0.634767,2.223,122.776,0.303941,0.0185303,0.965115,-1.00329,0.776781,-0.0288658,0.0666118,3.85644,1.33418,0,2.4,0,12467,49.351,23.872,11781.1
3362013002,0.634767,2.223,122.777,0.231996,0.0242317,0.966162,-1.27336,0.972031,-0.00250714,0.0810988,3.03512,1.04042,0,2.4,0,12467,49.351,23.872,11781.1
3362113355,0.634767,2.223,122.772,0.165891,0.0300883,0.966968,-1.48207,1.10827,0.00797637,-0.0502498,2.37282,0.429914,0,2.4,0,12467,49.351,23.872,11781.1
3362213711,0.634767,2.223,122.765,0.116056,0.0337837,0.966922,-1.63198,1.20631,0.0191243,-0.0670912,1.67943,0.285471,0,2.4,0,12467,49.351,23.872,11781.1
3362314072,0.634767,2.223,122.756,0.080313,0.0358931,0.966739,-1.75195,1.27516,0.00750474,-0.154741,1.25431,-0.0183043,0,2.4,0,12467,49.351,23.872,11781.1
3362414432,0.634767,2.223,122.75,0.0550866,0.0347872,0.966326,-1.83908,1.32133,0.0107438,-0.116862,0.86698,0.235205,0,2.4,0,12467,49.318,24.275,11971.9
3362514765,0.634767,2.223,122.736,0.0380821,0.0341098,0.965723,-1.90665,1.35837,0.0148576,-0.0715055,0.65885,0.247013,0,2.4,0,12467,49.318,24.275,11971.9
3362615111,0.634767,2.223,122.719,0.0258707,0.0341265,0.965361,-1.95723,1.38709,0.00212545,-0.0184473,0.48518,0.126713,0,2.4,0,12467,49.318,24.275,11971.9
3362715506,0.634767,2.223,122.703,0.0167629,0.0335089,0.965019,-1.99275,1.40661,0.0115854,-0.0564528,0.336494,0.285644,0,2.4,0,12467,49.318,24.275,11971.9
3362815845,0.634767,2.223,122.682,0.0124542,0.0329065,0.964677,-2.01788,1.41194,0.00709545,-0.1124,0.271691,0.148006,0,2.4,0,12467,49.318,24.275,11971.9
3362916255,0.634767,2.223,122.667,0.00908639,0.0318135,0.964497,-2.04261,1.42044,0.0154182,-0.0779378,0.256851,0.475332,0,2.4,0,12467,49.318,24.275,11971.9
3363016595,0.634767,2.223,122.652,0.00694357,0.0300595,0.964216,-2.0649,1.4286,0.0273781,-0.0717192,0.289425,0.0854885,0,2.4,0,12467,49.318,24.275,11971.9
3363116946,0.634767,2.223,122.647,0.00535812,0.0292149,0.963782,-2.07766,1.42846,0.0323616,-0.0728086,0.17174,0.127815,0,2.4,0,12467,49.318,24.275,11971.9
3363217288,0.634767,2.223,122.648,0.00605255,0.0279105,0.963449,-2.08472,1.42717,0.0396691,-0.0661606,0.130566,0.142544,0,2.4,0,12467,49.318,24.275,11971.9
3363317699,0.634767,2.223,122.65,0.00656506,0.0255137,0.963203,-2.09882,1.42768,0.0469125,-0.0946106,0.204843,0.152773,0,-2.7,0,12467,49.318,24.275,11971.9
3363418069,0.634767,2.223,122.653,-0.00648044,0.0229747,0.964221,-2.10829,1.43141,0.0504158,-0.00185414,0.187901,0.0354547,0,-2.7,0,12467,49.308,25.986,12813.2
3363518440,0.634767,2.223,122.667,-0.162224,0.0195155,0.960903,-2.10593,1.42336,0.0973259,-0.0293609,-0.195227,0.236676,0,-2.7,0,12467,49.308,25.986,12813.2
3363618792,0.634767,2.223,122.688,-0.317487,0.0156339,0.959519,-1.93635,1.30238,0.0752833,-0.037611,-2.21156,-0.097513,0,-2.7,0,12467,49.308,25.986,12813.2
3363719133,0.634767,2.223,122.698,-0.416958,0.0135704,0.959552,-1.64592,1.10407,0.040746,0.0420559,-3.34612,1.22177,0,-2.7,0,12467,49.308,25.986,12813.2
3363819457,0.634767,2.223,122.707,-0.463059,0.0122151,0.95997,-1.26813,0.848779,0.0403802,0.103257,-4.0381,1.82231,0,-2.7,0,12467,49.308,25.986,12813.2
3363919826,0.634767,2.223,122.71,-0.479254,0.0126788,0.959536,-0.857696,0.574257,0.0418811,0.130086,-4.45082,1.94305,0,-2.7,0,12467,49.308,25.986,12813.2
3364020211,0.634767,2.223,122.715,-0.475594,0.0137794,0.959115,-0.446755,0.290814,0.0521257,0.106178,-4.27066,2.33037,0,-2.7,0,12467,49.308,25.986,12813.2
3364120561,0.634767,2.223,122.718,-0.465934,0.0141741,0.958872,-0.05565,0.0166485,0.0469885,0.0613986,-3.98001,2.2018,0,-2.7,0,12467,49.308,25.986,12813.2
3364221012,0.634767,2.223,122.717,-0.453965,0.0140019,0.959132,0.393463,-0.297558,0.0495538,0.0446724,-3.97642,1.63781,0,-2.7,0,12467,49.308,25.986,12813.2
3364321380,0.634767,2.223,122.72,-0.433106,0.0129142,0.959902,0.755025,-0.551419,0.0413636,0.0262369,-3.803,1.75673,0,-2.7,0,12467,49.308,25.986,12813.2
3364421746,0.634767,2.223,122.72,-0.380742,0.0114795,0.961179,1.09317,-0.780427,0.0537645,0.112934,-3.36437,1.60092,0,-2.7,0,12467,49.252,26.381,12993.2
3364522059,0.634767,2.223,122.723,-0.318419,0.0091573,0.962226,1.3661,-0.971315,0.0566678,0.098823,-2.88694,0.902153,0,-2.7,0,12467,49.252,26.381,12993.2
3364622359,0.634767,2.223,122.72,-0.263168,0.00657255,0.963114,1.5927,-1.12133,0.0617236,0.141048,-2.33657,0.62652,0,-2.7,0,12467,49.252,26.381,12993.2
3364722707,0.634767,2.223,122.724,-0.215528,0.00517878,0.963876,1.76152,-1.23563,0.0587487,0.13289,-1.74584,0.342986,0,-2.7,0,12467,49.252,26.381,12993.2
3364823070,0.634767,2.223,122.731,-0.177042,0.00680986,0.963344,1.88065,-1.31465,0.0636852,0.107087,-1.18614,0.122853,0,-2.7,0,12467,49.252,26.381,12993.2
3364923408,0.634767,2.223,122.733,-0.149262,0.00917177,0.963066,1.97022,-1.37916,0.0559782,0.0800602,-0.939182,0.143562,0,-2.7,0,12467,49.252,26.381,12993.2
3365023722,0.634767,2.223,122.737,-0.128628,0.00895872,0.963126,2.03536,-1.42748,0.0520558,0.0578226,-0.725862,-0.123919,0,-2.7,0,12467,49.252,26.381,12993.2
3365124061,0.634767,2.223,122.75,-0.113815,0.0110448,0.962837,2.08305,-1.46076,0.047088,0.0976016,-0.535222,-0.203118,0,-2.7,0,12467,49.252,26.381,12993.2
3365224315,0.634767,2.223,122.76,-0.104243,0.0113995,0.962748,2.10945,-1.4841,0.0332406,0.0556816,-0.332588,-0.0626293,0,-2.7,0,12467,49.252,26.381,12993.2
3365324674,0.634767,2.223,122.767,-0.0973994,0.00850537,0.962747,2.12221,-1.49959,0.0326819,0.0974096,-0.294073,0.0302211,0,-0.7,0,12467,49.252,26.381,12993.2
3365425030,0.634767,2.223,122.774,-0.0645387,0.00841091,0.960623,2.13007,-1.51247,0.0373029,0.0584865,-0.250893,0.434495,0,-0.7,0,12423,49.161,28.212,13869.3
3365525362,0.634767,2.223,122.789,0.106069,0.00912196,0.963136,2.08997,-1.48389,0.092268,0.0921943,0.755422,0.176225,0,-0.7,0,12423,49.161,28.212,13869.3
3365625728,0.634767,2.223,122.809,0.213045,0.00941828,0.964055,1.89098,-1.34426,0.0504235,0.0945465,2.40823,-0.294932,0,-0.7,0,12423,49.161,28.212,13869.3
3365726072,0.634767,2.223,122.813,0.249051,0.00869996,0.96298,1.62909,-1.16807,0.0105011,0.0628336,2.9319,0.655839,0,-0.7,0,12423,49.161,28.212,13869.3
3365826415,0.634767,2.223,122.817,0.234151,0.0080611,0.962775,1.35454,-0.969672,0.00642907,0.15539,3.11336,0.491672,0,-0.7,0,12423,49.161,28.212,13869.3
3365926771,0.634767,2.223,122.825,0.193817,0.00626376,0.961701,1.11445,-0.789721,-0.020699,0.21318,2.73892,0.344656,0,-0.7,0,12423,49.161,28.212,13869.3
3366027112,0.634767,2.223,122.827,0.145794,0.00849857,0.961671,0.907803,-0.643786,-0.0244839,0.100632,2.3136,0.193665,0,-0.7,0,12423,49.161,28.212,13869.3
3366127510,0.634767,2.223,122.816,0.0958525,0.0089949,0.961593,0.73255,-0.528209,-0.0369273,0.027848,1.81091,0.0234735,0,-0.7,0,12423,49.161,28.212,13869.3
3366227845,0.634767,2.223,122.805,0.0483484,0.0102944,0.961722,0.597776,-0.440384,-0.0327258,0.0304806,1.29166,0.163104,0,-0.7,0,12423,49.161,28.212,13869.3
3366329637,0.634767,2.223,122.796,0.0070972,0.0123372,0.962429,0.511873,-0.378419,-0.0333163,0.0600164,0.790473,0.248603,0,-0.7,0,12423,49.161,28.212,13869.3
3366430023,0.634767,2.223,122.788,-0.021314,0.0133408,0.963152,0.454969,-0.330871,-0.0198265,0.117803,0.486421,0.115202,0,-0.7,0,12423,49.057,27.3,13392.6
3366530353,0.634767,2.223,122.776,-0.042695,0.015572,0.963834,0.414552,-0.302001,-0.0163534,0.0248539,0.270454,0.190819,0,-0.7,0,12423,49.057,27.3,13392.6
3366630646,0.634767,2.223,122.763,-0.058881,0.0146081,0.964614,0.396343,-0.293002,-0.021558,-0.00810309,0.0176736,0.325213,0,-0.7,0,12423,49.057,27.3,13392.6
3366730984,0.634767,2.223,122.754,-0.0638176,0.0102008,0.965008,0.39465,-0.299119,-0.00550194,-0.0229777,-0.132705,0.405171,0,-0.7,0,12423,49.057,27.3,13392.6
3366831464,0.634767,2.223,122.744,-0.0626849,0.00369203,0.964958,0.397724,-0.295136,0.00239424,0.0802705,-0.13936,-0.0608098,0,-0.7,0,12423,49.057,27.3,13392.6
3366931909,0.634767,2.223,122.736,-0.0626225,0.00346651,0.965229,0.410765,-0.27165,0.00352989,0.310829,-0.150392,0.211236,0,-0.7,0,12423,49.057,27.3,13392.6
3367032302,0.634767,2.223,122.738,-0.0629135,0.00230924,0.965143,0.427445,-0.259093,0.0187748,0.25961,-0.108927,0.250446,0,-0.7,0,12423,49.057,27.3,13392.6
3367132640,0.634767,2.223,122.74,-0.0658689,0.00372543,0.965364,0.44481,-0.235091,0.0231284,0.30259,-0.0911754,-0.015921,0,-0.7,0,12423,49.057,27.3,13392.6
3367233014,0.634767,2.223,122.746,-0.0654962,0.0054017,0.964827,0.4707,-0.214147,0.0190866,0.306855,-0.157728,0.0364525,0,-0.7,0,12423,49.057,27.3,13392.6
3367333386,0.634767,2.223,122.758,-0.0642935,0.00924917,0.964489,0.490305,-0.1943,0.0341473,0.255215,-0.0961144,-0.0695896,0,-1.2,0,12423,49.057,27.3,13392.6
3367433695,0.634767,2.223,122.77,-0.0735046,0.013166,0.964679,0.509365,-0.182591,0.029814,0.237325,-0.0761645,0.0916648,0,-1.2,0,12423,49.057,27.3,13392.6
3367533995,0.634767,2.223,122.772,-0.109596,0.0184807,0.963432,0.535493,-0.177521,0.0403226,0.179677,-0.355614,-0.403183,0,-1.2,0,12379,49.239,25.521,12566.3
3367634247,0.634767,2.223,122.769,-0.134045,0.0232916,0.962121,0.593338,-0.198286,0.0103726,0.145044,-0.579957,-0.0446255,0,-1.2,0,12379,49.239,25.521,12566.3
3367734609,0.634767,2.223,122.767,-0.147505,0.0287063,0.961695,0.651062,-0.244995,-0.00240137,-0.0437991,-0.743561,0.0361051,0,-1.2,0,12379,49.239,25.521,12566.3
3367834971,0.634767,2.223,122.76,-0.143175,0.0308764,0.961987,0.725743,-0.295829,0.00672916,0.00604575,-0.819455,0.211528,0,-1.2,0,12379,49.239,25.521,12566.3
3367935289,0.634767,2.223,122.757,-0.130901,0.032897,0.961597,0.794062,-0.348002,0.0109752,-0.0476742,-0.787964,0.191827,0,-1.2,0,12379,49.239,25.521,12566.3
3368035658,0.634767,2.223,122.757,-0.119817,0.0332812,0.961893,0.846245,-0.388508,0.0116886,0.00981534,-0.673273,0.125923,0,-1.2,0,12379,49.239,25.521,12566.3
3368136060,0.634767,2.223,122.766,-0.10728,0.0344061,0.961368,0.889671,-0.415739,0.0181862,0.0170075,-0.499428,-0.212862,0,-1.2,0,12379,49.239,25.521,12566.3
3368238191,0.634767,2.223,122.762,-0.0947995,0.0350106,0.961382,0.925841,-0.444292,0.0108124,-0.00594157,-0.368925,0.208171,0,-1.2,0,12379,49.239,25.521,12566.3
3368345173,0.634767,2.223,122.756,-0.083802,0.0363473,0.960891,0.953508,-0.464796,0.0124319,0.048558,-0.21236,0.0916686,0,-1.2,0,12379,49.239,25.521,12566.3
3368445560,0.634767,2.223,122.753,-0.0781443,0.0388293,0.960421,0.968365,-0.484489,0.0181155,-0.0179863,-0.190366,0.074622,0,-1.2,0,12379,49.239,25.521,12566.3
3368545899,0.634767,2.223,122.748,-0.0737159,0.0383393,0.960393,0.969214,-0.503003,0.0125044,-0.112133,-0.0707844,0.21895,0,-1.2,0,12379,49.261,24.727,12180.8
3368646228,0.634767,2.223,122.747,-0.0706978,0.0368681,0.960596,0.972205,-0.519599,0.0169316,-0.100038,-0.114976,-0.0651082,0,-1.2,0,12379,49.261,24.727,12180.8
3368746605,0.634768,2.223,122.748,-0.0690687,0.0374022,0.960956,0.971129,-0.532167,0.0154682,-0.0673732,-0.0441374,-0.0977673,0,-1.2,0,12379,49.261,24.727,12180.8
3368846930,0.634768,2.223,122.743,-0.0684692,0.0333847,0.961007,0.971266,-0.550083,0.0133224,-0.0634691,-0.0497397,0.184484,0,-1.2,0,12379,49.261,24.727,12180.8
3368947266,0.634768,2.223,122.741,-0.068455,0.0310574,0.961459,0.975545,-0.551484,0.0181936,0.0526395,0.00190375,-0.0261658,0,-1.2,0,12379,49.261,24.727,12180.8
3369047697,0.634768,2.223,122.74,-0.0699597,0.0299514,0.961452,0.982309,-0.555138,0.0189512,0.0754812,-0.0710221,0.164436,0,-1.2,0,12379,49.261,24.727,12180.8
3369147991,0.634768,2.223,122.741,-0.0692897,0.0306275,0.961428,0.992154,-0.56736,0.0243556,0.00299071,-0.144771,0.0403839,0,-1.2,0,12379,49.261,24.727,12180.8
3369248308,0.634768,2.223,122.744,-0.0679714,0.0319715,0.961091,0.992785,-0.583739,0.0171419,-0.054176,-0.0969641,-0.0870093,0,-1.2,0,12379,49.261,24.727,12180.8
3369348733,0.634768,2.223,122.749,-0.0690173,0.0315021,0.961345,0.997377,-0.579398,0.0198899,0.0865303,-0.0371347,0.00832391,0,1,0,12379,49.261,24.727,12180.8
3369449141,0.634768,2.223,122.755,-0.0391375,0.0305536,0.959778,1.01162,-0.592785,0.0355229,0.0366818,-0.234806,0.563612,0,1,0,12379,49.261,24.727,12180.8
3369549515,0.634768,2.223,122.755,0.149449,0.0282227,0.966548,0.971844,-0.565525,0.0791887,0.0954739,0.831801,0.331506,0,1,0,12379,49.238,24.903,12261.7
3369649804,0.634768,2.223,122.764,0.270279,0.0277437,0.967319,0.764572,-0.399897,0.0256533,0.176592,2.76913,-0.114275,0,1,0,12379,49.238,24.903,12261.7
3369750158,0.634768,2.223,122.765,0.306012,0.0276944,0.966094,0.484789,-0.192506,-0.0113523,0.142268,3.43593,0.999783,0,1,0,12379,49.238,24.903,12261.7
3369850507,0.634768,2.223,122.761,0.283213,0.0257102,0.963672,0.182915,0.0241519,-0.0122184,0.0986788,3.48399,1.08311,0,1,0,12379,49.238,24.903,12261.7
3369950821,0.634768,2.223,122.765,0.231135,0.0256418,0.962411,-0.0821337,0.229748,-0.00847604,0.148936,3.09964,0.782362,0,1,0,12379,49.238,24.903,12261.7
3370051173,0.634768,2.223,122.762,0.170285,0.0293149,0.962485,-0.292506,0.391122,-0.0108686,0.110857,2.4912,0.489735,0,1,0,12379,49.238,24.903,12261.7
3370151536,0.634768,2.223,122.76,0.115633,0.0330886,0.962811,-0.453892,0.511968,-0.00943809,0.116375,1.88682,0.113862,0,1,0,12379,49.238,24.903,12261.7
3370251848,0.634768,2.223,122.756,0.068594,0.0374207,0.96263,-0.576528,0.595772,-0.00336666,0.0264877,1.25628,0.267943,0,1,0,12379,49.238,24.903,12261.7
3370352258,0.634768,2.223,122.756,0.0384373,0.0418575,0.962899,-0.65991,0.64473,0.0051877,-0.0589486,0.839939,0.21097,0,1,0,12379,49.238,24.903,12261.7
3370452613,0.634768,2.223,122.754,0.0165326,0.0449486,0.962939,-0.7235,0.676654,0.0141814,-0.0885816,0.560728,-0.222017,0,1,0,12379,49.238,24.903,12261.7
3370552959,0.634768,2.223,122.752,0.00126155,0.0473966,0.963241,-0.776713,0.701301,-0.0002127,-0.0994015,0.425444,0.127124,0,1,0,12379,49.3,24.344,12001.6
3370653331,0.634768,2.223,122.746,-0.00930634,0.0482747,0.963498,-0.809839,0.711964,0.0140091,-0.0958255,0.185081,0.0475186,0,1,0,12379,49.3,24.344,12001.6
3370753700,0.634768,2.223,122.743,-0.0128442,0.0477475,0.963911,-0.830234,0.712846,0.0155422,-0.111221,0.0930932,0.050904,0,1,0,12379,49.3,24.344,12001.6
3370854062,0.634768,2.223,122.74,-0.0160296,0.0459386,0.963857,-0.855054,0.720749,0.00975076,-0.0378131,0.17653,-0.114204,0,1,0,12379,49.3,24.344,12001.6
3370954453,0.634768,2.223,122.732,-0.0188552,0.04482,0.963858,-0.8698,0.723522,0.012946,-0.0576087,0.0954531,0.228069,0,1,0,12379,49.3,24.344,12001.6
3371054827,0.634767,2.223,122.734,-0.0201823,0.0438585,0.963905,-0.877915,0.723587,0.022948,-0.0478983,0.0686332,-0.0062115,0,1,0,12379,49.3,24.344,12001.6
3371155179,0.634767,2.223,122.734,-0.0198717,0.0439468,0.963761,-0.892843,0.721762,0.0231237,-0.0688599,0.100617,0.0994976,0,1,0,12379,49.3,24.344,12001.6
3371255522,0.634767,2.223,122.738,-0.0195481,0.0429597,0.96385,-0.904373,0.725307,0.0270806,-0.00946207,0.141055,-0.00757188,0,1,0,12379,49.3,24.344,12001.6
3371355888,0.634767,2.223,122.74,-0.0217301,0.0422797,0.963587,-0.909732,0.721339,0.0296029,-0.100109,0.0458805,-0.0458235,0,-3.4,0,12379,49.3,24.344,12001.6
3371456218,0.634767,2.223,122.754,-0.0311061,0.0384732,0.964822,-0.908909,0.709251,0.0364082,-0.08262,-0.0570982,-0.187552,0,-3.4,0,12379,49.3,24.344,12001.6
3371556599,0.634767,2.223,122.766,-0.162481,0.027526,0.961199,-0.896591,0.699438,0.0765136,0.0230315,-0.303852,0.0438228,0,-3.4,0,12379,49.3,24.344,12001.6
3371656960,0.634767,2.223,122.778,-0.307408,0.0193769,0.959701,-0.747065,0.610835,0.0226933,0.135947,-2.00497,-0.255859,0,-3.4,0,12379,49.3,23.767,11717.1
3371757328,0.634767,2.223,122.782,-0.401381,0.017316,0.959269,-0.480645,0.442035,-0.00689982,0.163658,-2.96903,1.23268,0,-3.4,0,12379,49.3,23.767,11717.1
3371857674,0.634767,2.223,122.78,-0.447654,0.0179409,0.959447,-0.132905,0.216969,-0.00885057,0.148329,-3.65771,1.74985,0,-3.4,0,12379,49.3,23.767,11717.1
3371958032,0.634767,2.223,122.766,-0.463228,0.0217459,0.958377,0.253471,-0.0258148,-0.0110834,0.268094,-3.98622,1.9692,0,-3.4,0,12379,49.3,23.767,11717.1
3372058419,0.634767,2.223,122.755,-0.460518,0.0266706,0.95704,0.641104,-0.276087,-0.00533474,0.228378,-3.93325,2.09104,0,-3.4,0,12379,49.3,23.767,11717.1
3372158719,0.634767,2.223,122.751,-0.451773,0.0308983,0.956568,1.00561,-0.524491,-0.00442145,0.162545,-3.78633,1.94363,0,-3.4,0,12379,49.3,23.767,11717.1
3372258992,0.634767,2.223,122.745,-0.433499,0.0354403,0.956011,1.36011,-0.781824,0.00156067,0.0135386,-3.7643,1.89805,0,-3.4,0,12379,49.3,23.767,11717.1
3372359297,0.634767,2.223,122.751,-0.382589,0.0381745,0.956578,1.69288,-1.01741,0.0167359,0.0561302,-3.36713,1.76336,0,-3.4,0,12379,49.3,23.767,11717.1
3372459645,0.634768,2.223,122.76,-0.325095,0.041253,0.956527,1.97728,-1.22019,0.0432601,0.0586158,-2.93964,1.28916,0,-3.4,0,12379,49.3,23.767,11717.1
3372559989,0.634768,2.223,122.769,-0.267966,0.0448261,0.956355,2.19995,-1.38689,0.0526499,-0.0320204,-2.35054,0.759676,0,-3.4,0,12379,49.3,23.767,11717.1
3372660393,0.634768,2.223,122.775,-0.221088,0.0455306,0.957094,2.36415,-1.5253,0.051686,-0.0668056,-1.92171,0.301692,0,-3.4,0,12379,49.235,25.551,12580
3372760740,0.634768,2.223,122.788,-0.181653,0.0427944,0.957977,2.49176,-1.62928,0.0559074,-0.0308986,-1.38326,0.277445,0,-3.4,0,12379,49.235,25.551,12580
3372861093,0.634768,2.223,122.795,-0.154288,0.0406841,0.958278,2.60845,-1.72965,0.0495537,-0.00103734,-1.02941,0.133985,0,-3.4,0,12379,49.235,25.551,12580
3372961448,0.634768,2.223,122.802,-0.133123,0.0367325,0.958543,2.67711,-1.79305,0.0375635,-0.0263191,-0.800134,-0.0622035,0,-3.4,0,12379,49.235,25.551,12580
3373061798,0.634768,2.223,122.811,-0.116186,0.0335482,0.958655,2.7251,-1.83988,0.026736,-0.00610943,-0.53507,0.0833498,0,-3.4,0,12379,49.235,25.551,12580
3373162156,0.634768,2.223,122.815,-0.102905,0.0320455,0.958356,2.76477,-1.87033,0.0187311,0.128358,-0.413936,-0.0376872,0,-3.4,0,12379,49.235,25.551,12580
3373262496,0.634768,2.223,122.817,-0.0934917,0.0322244,0.958061,2.78063,-1.89403,0.00184816,0.0501078,-0.283382,-0.0832357,0,-3.4,0,12379,49.235,25.551,12580
3373362906,0.634768,2.223,122.811,-0.0854509,0.0363967,0.95781,2.78687,-1.91493,-0.0035205,-0.0647126,-0.173697,-0.0336187,0,0.7,0,12379,49.235,25.551,12580
3373463269,0.634768,2.223,122.801,-0.0652583,0.037796,0.955453,2.7808,-1.93571,-0.00905732,-0.044224,-0.102549,0.29907,0,0.7,0,12379,49.235,25.551,12580
3373563628,0.634768,2.223,122.788,0.125336,0.0332073,0.96137,2.73511,-1.92828,0.0678649,-0.0827274,0.600945,0.560195,0,0.7,0,12379,49.235,25.551,12580
3373664037,0.634768,2.223,122.793,0.315583,0.0325802,0.967398,2.4813,-1.75979,0.0467686,-0.00233552,3.11799,0.162687,0,0.7,0,12379,49.255,25.099,12362.5
3373764394,0.634768,2.223,122.796,0.424232,0.0292481,0.968875,2.1069,-1.52244,-0.0368549,-0.0258663,4.19468,1.38549,0,0.7,0,12379,49.255,25.099,12362.5
3373864767,0.634768,2.223,122.784,0.48175,0.0279417,0.97002,1.63911,-1.21148,-0.0550438,-0.011015,5.02386,2.10413,0,0.7,0,12379,49.255,25.099,12362.5
3373965125,0.634768,2.223,122.788,0.493712,0.0290804,0.972877,1.14106,-0.89009,-0.0959851,-0.130367,5.24421,2.41941,0,0.7,0,12379,49.255,25.099,12362.5
3374065447,0.634768,2.223,122.791,0.444162,0.0258085,0.969762,0.651467,-0.564297,-0.10908,0.00374656,5.0716,2.22561,0,0.7,0,12379,49.255,25.099,12362.5
3374165832,0.634768,2.223,122.764,0.344084,0.0077043,0.960062,0.222964,-0.272008,-0.101488,0.0158894,4.45524,1.90272,0,0.7,0,12379,49.255,25.099,12362.5
3374266156,0.634768,2.223,122.734,0.236556,-0.00961935,0.955519,-0.0976303,-0.0204098,-0.064553,0.266166,3.46082,1.23964,0,0.7,0,12379,49.255,25.099,12362.5
3374366517,0.634768,2.223,122.737,0.124692,-0.00137844,0.959337,-0.300812,0.172294,-0.0304791,0.407972,2.24367,1.02104,0,0.7,0,12379,49.255,25.099,12362.5
3374466848,0.634768,2.223,122.74,0.0621006,0.0162921,0.962744,-0.425108,0.28242,0.0230153,0.191853,1.27244,0.549998,0,0.7,0,12379,49.255,25.099,12362.5
3374567203,0.634768,2.223,122.737,0.0189746,0.0301732,0.963938,-0.519795,0.348526,0.0323204,0.0157461,0.824129,0.0639088,0,0.7,0,12379,49.255,25.099,12362.5
3374667557,0.634768,2.223,122.739,-0.00836762,0.0356528,0.964297,-0.586026,0.378439,0.048225,-0.116871,0.392528,-0.0622833,0,0.7,0,12335,49.341,26.146,12900.7
3374767970,0.634768,2.223,122.77,-0.0246628,0.0380916,0.964322,-0.625494,0.388018,0.0539616,-0.195389,0.145715,-0.274295,0,0.7,0,12335,49.341,26.146,12900.7
3374868334,0.634768,2.223,122.803,-0.0303903,0.0383085,0.96396,-0.656176,0.389538,0.0493203,-0.20514,0.0815578,-0.256333,0,0.7,0,12335,49.341,26.146,12900.7
3374968687,0.634768,2.223,122.823,-0.0318753,0.0371781,0.963765,-0.675464,0.387518,0.042343,-0.174372,0.0189703,-0.218506,0,0.7,0,12335,49.341,26.146,12900.7
3375069022,0.634768,2.223,122.843,-0.0305751,0.0353788,0.963371,-0.698229,0.387237,0.0407733,-0.177422,0.158084,-0.159951,0,0.7,0,12335,49.341,26.146,12900.7
3375169392,0.634768,2.223,122.854,-0.0303406,0.0327706,0.963378,-0.708054,0.38487,0.0259388,-0.109127,0.0918082,-0.422653,0,0.7,0,12335,49.341,26.146,12900.7
3375269717,0.634768,2.223,122.86,-0.0277311,0.028982,0.963511,-0.721152,0.375205,0.00377321,-0.13755,0.0937041,-0.00681697,0,0.7,0,12335,49.341,26.146,12900.7
3375370145,0.634768,2.223,122.853,-0.0252438,0.0254629,0.963702,-0.724808,0.365193,-0.000643775,-0.113444,0.0933125,0.0434566,0,0.4,0,12335,49.341,26.146,12900.7
3375470464,0.634768,2.223,122.843,-0.0395322,0.0223024,0.963637,-0.734875,0.367374,0.00323181,-0.039763,0.174479,0.0981951,0,0.4,0,12335,49.341,26.146,12900.7
3375570807,0.634768,2.223,122.826,-0.0644743,0.0207516,0.96313,-0.720057,0.358594,-0.00149137,0.0210189,-0.164876,-0.362773,0,0.4,0,12335,49.341,26.146,12900.7
3375671112,0.634768,2.223,122.806,-0.0723776,0.0174884,0.963552,-0.687804,0.336235,-0.0249645,0.0341711,-0.278335,-0.0354614,0,0.4,0,12335,49.353,23.599,11646.8
3375771468,0.634768,2.223,122.789,-0.0734708,0.0147737,0.96352,-0.653096,0.315564,-0.0221445,0.0911741,-0.304109,-0.114037,0,0.4,0,12335,49.353,23.599,11646.8
3375871818,0.634768,2.223,122.772,-0.0682311,0.0123403,0.963684,-0.623077,0.294145,-0.0310049,0.0459067,-0.283766,0.0846508,0,0.4,0,12335,49.353,23.599,11646.8
3375972212,0.634768,2.223,122.761,-0.0611996,0.0109754,0.963785,-0.588229,0.280371,-0.00943067,0.120797,-0.260085,0.14797,0,0.4,0,12335,49.353,23.599,11646.8
3376072580,0.634768,2.223,122.75,-0.056328,0.0106699,0.963529,-0.561234,0.274741,-0.00815155,0.151089,-0.129541,0.127345,0,0.4,0,12335,49.353,23.599,11646.8
3376172970,0.634768,2.223,122.739,-0.0500073,0.0121692,0.963634,-0.536549,0.273605,9.98154e-05,0.205164,-0.0431121,0.211391,0,0.4,0,12335,49.353,23.599,11646.8
3376273338,0.634768,2.223,122.735,-0.044692,0.0141366,0.963385,-0.52153,0.274365,0.00105764,0.161471,-0.0288527,0.225755,0,0.4,0,12335,49.353,23.599,11646.8
3376373696,0.634768,2.223,122.735,-0.0390373,0.0161627,0.963425,-0.502441,0.272356,0.00752099,0.172433,-0.0224006,0.163715,0,0.4,0,12335,49.353,23.599,11646.8
3376473995,0.634768,2.223,122.733,-0.0369756,0.0180517,0.96348,-0.500342,0.27208,0.0108075,0.0352241,0.0458647,-0.100157,0,0.4,0,12335,49.353,23.599,11646.8
3376574369,0.634768,2.223,122.733,-0.0369341,0.0168644,0.963718,-0.49853,0.26173,0.0226419,-0.0163706,0.0145137,0.0290521,0,0.4,0,12335,49.353,23.599,11646.8
3376674665,0.634768,2.223,122.731,-0.034507,0.0155972,0.963859,-0.502986,0.262789,0.0161038,0.0352958,0.167203,-0.119093,0,0.4,0,12335,49.23,24.975,12295.2
3376774935,0.634768,2.223,122.732,-0.0353862,0.0155692,0.963911,-0.51122,0.264955,0.0221354,0.0128039,0.147426,0.142128,0,0.4,0,12335,49.23,24.975,12295.2
3376875274,0.634768,2.223,122.729,-0.0360705,0.0146086,0.963744,-0.51709,0.264086,0.030948,0.0369918,0.125503,0.0713388,0,0.4,0,12335,49.23,24.975,12295.2
3376975642,0.634768,2.223,122.729,-0.0371256,0.0142613,0.964058,-0.515128,0.266152,0.0298678,0.0857205,0.050292,0.209741,0,0.4,0,12335,49.23,24.975,12295.2
3377075990,0.634768,2.223,122.728,-0.0393059,0.0140553,0.964183,-0.517735,0.266713,0.0350598,0.0725334,0.0786992,-0.0668408,0,0.4,0,12335,49.23,24.975,12295.2
3377176329,0.634768,2.223,122.732,-0.0396092,0.0144647,0.964144,-0.51693,0.262732,0.0304278,0.0155969,0.0785643,-0.107526,0,0.4,0,12335,49.23,24.975,12295.2
3377276653,0.634768,2.223,122.732,-0.0379134,0.0130966,0.964506,-0.516778,0.265123,0.0271381,0.0540356,0.10658,0.117128,0,0.4,0,12335,49.23,24.975,12295.2
3377377119,0.634768,2.223,122.73,-0.0396268,0.0110398,0.964756,-0.517861,0.26326,0.0230499,0.0364287,0.0524274,0.00463927,0,-3.1,0,12335,49.23,24.975,12295.2
3377477486,0.634768,2.223,122.729,-0.0549502,0.00912033,0.96615,-0.515526,0.272076,0.0287601,0.138695,0.0667881,0.0804182,0,-3.1,0,12335,49.23,24.975,12295.2
3377577855,0.634768,2.223,122.724,-0.183586,0.00804775,0.963841,-0.487274,0.264657,0.0505005,0.192156,-0.496231,-0.0558464,0,-3.1,0,12335,49.23,24.975,12295.2
3377678208,0.634768,2.223,122.725,-0.314609,0.00511754,0.962625,-0.338368,0.178278,0.00529145,0.193704,-1.8569,0.10346,0,-3.1,0,12335,49.23,24.975,12295.2
3377778517,0.634768,2.223,122.727,-0.397132,0.00650618,0.961644,-0.0780752,0.0102802,-0.00311801,0.201364,-2.87682,1.33368,0,-3.1,0,12335,49.258,24.975,12302.2
3377878878,0.634768,2.223,122.725,-0.437625,0.00872346,0.961448,0.249544,-0.205765,0.00650475,0.0956101,-3.40577,1.82078,0,-3.1,0,12335,49.258,24.975,12302.2
3377979241,0.634768,2.223,122.725,-0.451577,0.0103702,0.961198,0.605191,-0.444909,0.0187736,0.159667,-3.67151,2.00195,0,-3.1,0,12335,49.258,24.975,12302.2
3378079592,0.634768,2.223,122.718,-0.448372,0.0114451,0.960873,0.951898,-0.688107,0.0193968,0.0435705,-3.73003,1.72407,0,-3.1,0,12335,49.258,24.975,12302.2
3378179957,0.634768,2.223,122.718,-0.408732,0.0129858,0.960609,1.29512,-0.93114,0.0334443,0.0330989,-3.55168,1.87296,0,-3.1,0,12335,49.258,24.975,12302.2
3378280319,0.634768,2.223,122.718,-0.353842,0.0131743,0.960685,1.58493,-1.13849,0.0507427,0.0426497,-3.07766,1.30619,0,-3.1,0,12335,49.258,24.975,12302.2
3378380702,0.634768,2.223,122.722,-0.301653,0.0126108,0.96075,1.81912,-1.30524,0.0462644,0.0358336,-2.53046,0.776129,0,-3.1,0,12335,49.258,24.975,12302.2
3378481068,0.634768,2.223,122.725,-0.253892,0.0140667,0.960431,2.00363,-1.4344,0.0471419,0.0620906,-1.9512,0.479199,0,-3.1,0,12335,49.258,24.975,12302.2
3378581454,0.634768,2.223,122.737,-0.216535,0.0161495,0.960194,2.13947,-1.54231,0.0458466,-0.00421917,-1.51296,0.0739459,0,-3.1,0,12335,49.258,24.975,12302.2
3378681818,0.634768,2.223,122.749,-0.186113,0.0160064,0.960509,2.25349,-1.62812,0.0337343,0.0540027,-1.18161,0.177845,0,-3.1,0,12335,49.258,24.975,12302.2
3378782156,0.634768,2.223,122.761,-0.160049,0.0142683,0.961032,2.35654,-1.71727,0.0312594,0.0646965,-0.930004,-0.0339572,0,-3.1,0,12335,49.258,24.197,11919
3378882508,0.634768,2.223,122.775,-0.137845,0.0104912,0.962263,2.41173,-1.76172,0.0334475,0.046214,-0.587466,0.150555,0,-3.1,0,12335,49.258,24.197,11919
3378982805,0.634768,2.223,122.789,-0.122599,0.00701041,0.962271,2.46148,-1.7982,0.0292873,0.0964021,-0.49759,-0.0793707,0,-3.1,0,12335,49.258,24.197,11919
3379083166,0.634768,2.223,122.801,-0.109992,0.00580162,0.962114,2.49358,-1.81449,0.0253704,0.129706,-0.258086,0.0556543,0,-3.1,0,12335,49.258,24.197,11919
3379183520,0.634768,2.223,122.807,-0.102854,0.00367937,0.961991,2.52503,-1.82383,0.0163283,0.201441,-0.238134,-0.191664,0,-3.1,0,12335,49.258,24.197,11919
3379283902,0.634768,2.223,122.811,-0.0989991,0.0044481,0.962198,2.54064,-1.82549,-0.0026439,0.15201,-0.141622,-0.160007,0,-3.1,0,12335,49.258,24.197,11919
3379384340,0.634768,2.223,122.811,-0.0945854,0.00340899,0.962381,2.55295,-1.83234,-0.0139458,0.135353,-0.132895,0.114755,0,3.5,0,12335,49.258,24.197,11919
3379484693,0.634768,2.223,122.807,-0.0734875,0.00240448,0.959744,2.57092,-1.82414,-0.00683651,0.202001,-0.107726,0.569217,0,3.5,0,12335,49.258,24.197,11919
3379585058,0.634768,2.223,122.809,0.125795,0.00354371,0.960876,2.54394,-1.78344,0.061972,0.276478,0.758123,0.636042,0,3.5,0,12335,49.258,24.197,11919
3379685397,0.634768,2.223,122.819,0.314256,0.00687688,0.962921,2.28924,-1.59226,0.0408958,0.253185,3.36353,-0.150611,0,3.5,0,12335,49.258,24.197,11919
3379785725,0.634768,2.223,122.821,0.418867,0.0172983,0.966381,1.93137,-1.33911,-0.0402037,0.126422,4.09486,1.76207,0,3.5,0,12335,49.258,25.117,12372.1
3379886086,0.634768,2.223,122.81,0.47796,0.020274,0.966498,1.45899,-1.01966,-0.039878,0.0286465,4.96644,2.50467,0,3.5,0,12335,49.258,25.117,12372.1
3379986478,0.634768,2.223,122.815,0.500828,0.0261267,0.968512,0.960816,-0.68298,-0.0674838,0.0260301,5.15846,2.57621,0,3.5,0,12335,49.258,25.117,12372.1
3380086791,0.634768,2.223,122.813,0.498265,0.0351381,0.972594,0.445339,-0.348245,-0.0906808,-0.129258,5.20973,2.67938,0,3.5,0,12335,49.258,25.117,12372.1
3380187191,0.634768,2.223,122.785,0.481592,0.0268136,0.969369,-0.083457,-0.0201682,-0.0968339,-0.234096,5.13146,2.96406,0,3.5,0,12335,49.258,25.117,12372.1
3380287544,0.634768,2.223,122.766,0.461392,0.0161791,0.967101,-0.591448,0.318532,-0.0833286,-0.0446099,5.12553,2.78981,0,3.5,0,12335,49.258,25.117,12372.1
3380387890,0.634768,2.223,122.77,0.439292,0.00814261,0.96597,-1.07361,0.640899,-0.0393427,-0.0740368,4.7618,2.8028,0,3.5,0,12335,49.258,25.117,12372.1
3380488281,0.634768,2.223,122.781,0.384556,0.0020947,0.965186,-1.52265,0.951391,-0.00946763,0.0393353,4.60802,2.18487,0,3.5,0,12335,49.258,25.117,12372.1
3380589595,0.634768,2.223,122.794,0.305354,0.00135523,0.96518,-1.8871,1.22115,0.0177274,0.155234,3.82931,1.44553,0,3.5,0,12335,49.258,25.117,12372.1
3380690343,0.634768,2.223,122.801,0.226112,0.00500274,0.965613,-2.16301,1.42245,0.0297058,0.0652299,2.93363,0.751945,0,3.5,0,12335,49.258,25.117,12372.1
3380792983,0.634768,2.223,122.817,0.165292,0.00791444,0.965779,-2.37173,1.56666,0.0251638,0.0307186,2.17973,0.369957,0,3.5,0,12335,49.258,25.117,12372.1
3380893343,0.634768,2.223,122.828,0.118047,0.00869621,0.965664,-2.52804,1.67243,0.0297028,-0.0205882,1.59918,0.00301546,0,3.5,0,12335,49.258,25.117,12372.1
3380993675,0.634768,2.223,122.831,0.0835743,0.00831884,0.965106,-2.6451,1.75463,0.00975418,0.0543732,1.20248,-0.110194,0,3.5,0,12335,49.258,25.117,12372.1
3381094036,0.634768,2.223,122.835,0.0595416,0.00935201,0.964639,-2.72701,1.81594,0.00755792,0.0279557,0.895962,0.0877473,0,3.5,0,12335,49.258,25.117,12372.1
3381194413,0.634768,2.223,122.848,0.0430052,0.0098105,0.964307,-2.78494,1.85897,0.00647951,0.00139557,0.642178,-0.262374,0,3.5,0,12335,49.258,25.117,12372.1
3381294716,0.634768,2.223,122.859,0.0333175,0.01111,0.963658,-2.83706,1.89521,-0.00490144,-0.0451892,0.6369,-0.295594,0,3.5,0,12335,49.172,27.125,13337.9
3381395109,0.634768,2.223,122.864,0.0253321,0.0107444,0.963414,-2.86587,1.9188,-0.00992095,0.013866,0.436558,0.118139,0,-4.9,0,12335,49.172,27.125,13337.9
3381495486,0.634768,2.223,122.864,0.00404563,0.00902397,0.964605,-2.88661,1.93561,-0.0191554,-0.00434756,0.344069,-0.101099,0,-4.9,0,12335,49.172,27.125,13337.9
3381595849,0.634768,2.223,122.866,-0.174351,0.00868106,0.961832,-2.87938,1.93813,0.0193986,0.0337802,-0.197654,0.290108,0,-4.9,0,12335,49.172,27.125,13337.9
3381696265,0.634768,2.223,122.866,-0.344891,0.00773432,0.960247,-2.68766,1.81398,-0.0275937,0.0878825,-2.48248,-0.220228,0,-4.9,0,12335,49.172,27.125,13337.9
3381796631,0.634768,2.223,122.853,-0.44732,0.00522674,0.959956,-2.35648,1.5942,-0.0868651,0.0792411,-3.51326,1.688,0,-4.9,0,12335,49.172,27.125,13337.9
3381896990,0.634768,2.223,122.829,-0.494156,0.00495433,0.959615,-1.92925,1.30416,-0.0876533,0.0840108,-4.30555,2.47947,0,-4.9,0,12335,49.172,27.125,13337.9
3381997311,0.634768,2.223,122.812,-0.505316,0.00629113,0.959024,-1.46566,0.992926,-0.0640018,0.0973695,-4.4784,2.75283,0,-4.9,0,12335,49.172,27.125,13337.9
3382097682,0.634768,2.223,122.799,-0.494619,0.00758295,0.95794,-1.00715,0.682101,-0.0544367,0.101194,-4.45759,2.66871,0,-4.9,0,12335,49.172,27.125,13337.9
3382198034,0.634768,2.223,122.781,-0.479554,0.0107823,0.956275,-0.562906,0.376099,-0.0270815,0.0365325,-4.26252,2.65867,0,-4.9,0,12335,49.172,27.125,13337.9
3382298399,0.634768,2.223,122.774,-0.468021,0.011383,0.956598,-0.145321,0.0856586,-0.0070936,0.0796762,-4.18937,2.13753,0,-4.9,0,12335,49.172,27.125,13337.9
3382398704,0.634768,2.223,122.786,-0.454823,0.0104805,0.957739,0.249249,-0.198593,-0.00244727,0.00970319,-3.93744,1.99204,0,-4.9,0,12335,49.245,26.433,13016.9
3382499062,0.634768,2.223,122.794,-0.439659,0.00880996,0.959428,0.630141,-0.460887,0.0074451,0.0882137,-3.81439,1.74152,0,-4.9,0,12335,49.245,26.433,13016.9
3382599416,0.634768,2.223,122.801,-0.42974,0.00773089,0.96077,0.975928,-0.706175,0.000184139,0.0686779,-3.5002,1.42178,0,-4.9,0,12335,49.245,26.433,13016.9
3382699822,0.634768,2.223,122.817,-0.419983,0.0108181,0.961285,1.30503,-0.943157,0.0048158,0.00584876,-3.46802,1.22143,0,-4.9,0,12335,49.245,26.433,13016.9
3382800212,0.634768,2.223,122.832,-0.411381,0.0101071,0.962993,1.62656,-1.17536,0.00725051,0.0312101,-3.33289,1.25215,0,-4.9,0,12335,49.245,26.433,13016.9
3382901414,0.634768,2.223,122.863,-0.403086,0.00443155,0.964951,1.92924,-1.39268,0.0054253,0.0487771,-3.1901,1.09969,0,-4.9,0,12335,49.245,26.433,13016.9
3383005872,0.634768,2.223,122.877,-0.39661,-0.00137001,0.967535,2.28553,-1.63178,0.00718716,0.199923,-2.99296,1.23443,0,-4.9,0,12335,49.245,26.433,13016.9
3383106237,0.634768,2.223,122.887,-0.388032,-0.00612065,0.969477,2.56721,-1.81301,-0.00085659,0.313686,-2.92168,1.0929,0,-4.9,0,12335,49.245,26.433,13016.9
3383206638,0.634768,2.223,122.9,-0.362774,-0.00759083,0.969342,2.84016,-1.9796,0.00600654,0.297908,-2.80202,0.925154,0,-4.9,0,12335,49.245,26.433,13016.9
3383306959,0.634768,2.223,122.918,-0.32767,-0.00486516,0.968168,3.08003,-2.11827,0.00868399,0.366866,-2.53948,0.578535,0,-4.9,0,12335,49.245,26.433,13016.9
3383407383,0.634768,2.223,122.926,-0.295304,-0.00100406,0.966829,3.27697,-2.23751,0.000560116,0.261964,-2.12578,0.446667,0,4,0,12291,49.129,25.736,12643.8
3383507753,0.634768,2.223,122.933,-0.240884,0.000447184,0.963923,3.44052,-2.33847,-0.00903641,0.213915,-1.72638,0.790851,0,4,0,12291,49.129,25.736,12643.8
3383608109,0.634768,2.223,122.951,0.018502,-0.00294551,0.964431,3.5452,-2.40699,0.0664052,0.194851,-0.748991,0.763453,0,4,0,12291,49.129,25.736,12643.8
3383708453,0.634768,2.223,122.973,0.305115,0.000899971,0.964756,3.34945,-2.25008,0.144034,0.318652,2.7509,0.839319,0,4,0,12291,49.129,25.736,12643.8
3383808795,0.634768,2.223,122.981,0.438492,0.0210751,0.970039,2.99192,-2.00097,0.0437472,0.07461,4.59264,0.421453,0,4,0,12291,49.129,25.736,12643.8
3383909149,0.634768,2.223,122.998,0.486072,0.0252062,0.972686,2.5319,-1.70535,-0.0145765,0.0228091,4.85342,2.53481,0,4,0,12291,49.129,25.736,12643.8
3384009502,0.634768,2.223,122.999,0.500084,0.0277268,0.973926,2.03989,-1.39419,-0.0719788,-0.11482,5.31664,1.75857,0,4,0,12291,49.129,25.736,12643.8
3384109842,0.634768,2.223,122.97,0.50201,0.0277199,0.972369,1.56088,-1.08836,-0.158828,-0.0207212,5.12282,2.0143,0,4,0,12291,49.129,25.736,12643.8
3384210211,0.634768,2.223,122.929,0.509858,0.0213867,0.968545,1.05554,-0.76416,-0.204864,0.0132474,5.1566,2.53057,0,4,0,12291,49.129,25.736,12643.8
3384310562,0.634768,2.223,122.9,0.519058,0.0129533,0.962592,0.545551,-0.430103,-0.259635,-0.0716426,5.16537,2.74152,0,4,0,12291,49.129,25.736,12643.8
3384410925,0.634768,2.223,122.868,0.512521,-0.00752414,0.950839,0.00297034,-0.0522183,-0.252823,0.11197,5.32754,3.20443,0,4,0,12291,48.996,30.087,14741.4
3384512849,0.634768,2.223,122.835,0.49301,-0.0176868,0.948243,-0.533567,0.360376,-0.2251,0.350023,5.26907,3.64839,0,4,0,12291,48.996,30.087,14741.4
3384617713,0.634768,2.223,122.812,0.462618,-0.0151442,0.952262,-1.05727,0.78037,-0.146858,0.435928,5.16645,3.55244,0,4,0,12291,48.996,30.087,14741.4
3384718071,0.634768,2.223,122.811,0.429693,-0.00443719,0.958389,-1.54176,1.15727,-0.0718794,0.341355,4.85449,3.03257,0,4,0,12291,48.996,30.087,14741.4
3384818415,0.634768,2.223,122.816,0.358463,0.00599547,0.962211,-1.97707,1.48115,-0.0227613,0.196189,4.36467,2.16771,0,4,0,12291,48.996,30.087,14741.4
3384918764,0.634768,2.223,122.841,0.276964,0.0150281,0.964645,-2.32581,1.72413,0.0161038,0.0208032,3.54822,1.22754,0,4,0,12291,48.996,30.087,14741.4
3385019133,0.634768,2.223,122.863,0.202453,0.0215112,0.965798,-2.59637,1.90391,0.0314977,-0.0752615,2.80024,0.476884,0,4,0,12291,48.996,30.087,14741.4
3385119521,0.634768,2.223,122.894,0.143998,0.0239921,0.965924,-2.78362,2.02698,0.0340799,-0.0874363,1.92722,0.00623178,0,4,0,12291,48.996,30.087,14741.4
3385219904,0.634768,2.223,122.925,0.104928,0.0245664,0.96581,-2.92675,2.10956,0.0232614,-0.183367,1.40317,-0.260121,0,4,0,12291,48.996,30.087,14741.4
3385320307,0.634768,2.223,122.944,0.0788983,0.0222018,0.965721,-3.03011,2.17372,0.0150138,-0.112177,1.04729,-0.229066,0,4,0,12291,48.996,30.087,14741.4
3385420729,0.634768,2.223,122.957,0.0614082,0.0206748,0.96555,-3.10493,2.21642,0.00479402,-0.141232,0.782149,-0.290594,0,1.4,0,12291,49.183,27.339,13446.1
3385521102,0.634768,2.223,122.958,0.0331304,0.0187778,0.967343,-3.16226,2.25001,-0.0284256,-0.0750031,0.649333,-0.214695,0,1.4,0,12291,49.183,27.339,13446.1
3385621467,0.634768,2.223,122.956,-0.160658,0.0194337,0.963631,-3.16301,2.24906,0.0265453,-0.0176353,-0.462707,0.088735,0,1.4,0,12291,49.183,27.339,13446.1
3385721833,0.634768,2.223,122.955,-0.321127,0.0187057,0.961486,-2.95653,2.10271,-0.0382345,-0.072982,-2.68767,-0.145546,0,1.4,0,12291,49.183,27.339,13446.1
3385822198,0.634768,2.223,122.935,-0.380561,0.0159433,0.961512,-2.65838,1.89916,-0.102107,0.0174456,-3.32451,1.13891,0,1.4,0,12291,49.183,27.339,13446.1
3385922515,0.634768,2.223,122.921,-0.367387,0.0156589,0.961429,-2.32096,1.66589,-0.1023,-0.00268757,-3.51045,1.412,0,1.4,0,12291,49.183,27.339,13446.1
3386022872,0.634768,2.223,122.903,-0.308626,0.0165233,0.961564,-2.01338,1.45265,-0.0850157,-0.00852211,-3.17204,1.08096,0,1.4,0,12291,49.183,27.339,13446.1
3386123215,0.634768,2.223,122.878,-0.237748,0.0171244,0.962266,-1.77181,1.28516,-0.0763241,0.0421833,-2.41718,0.879875,0,1.4,0,12291,49.183,27.339,13446.1
3386223550,0.634768,2.223,122.848,-0.175831,0.0166729,0.962647,-1.5964,1.1612,-0.0682152,0.0204673,-1.64457,0.702642,0,1.4,0,12291,49.183,27.339,13446.1
3386323945,0.634768,2.223,122.843,-0.132234,0.0169064,0.962966,-1.46015,1.06891,-0.0662597,0.0394918,-1.19124,0.490115,0,1.4,0,12291,49.183,27.339,13446.1
3386424381,0.634768,2.223,122.841,-0.096578,0.0174661,0.963017,-1.35521,0.997692,-0.0421258,0.050895,-0.860432,0.0974771,0,1.4,0,12291,49.047,25.497,12505.5
3386524742,0.634768,2.223,122.84,-0.0688102,0.0184234,0.963192,-1.28557,0.948996,-0.0430908,-0.00446018,-0.491962,-0.262791,0,1.4,0,12291,49.047,25.497,12505.5
3386625100,0.634768,2.223,122.842,-0.0507172,0.0195699,0.963269,-1.23938,0.909608,-0.0314342,-0.0240994,-0.254347,0.23165,0,1.4,0,12291,49.047,25.497,12505.5
3386725456,0.634768,2.223,122.849,-0.038947,0.0196316,0.963393,-1.20346,0.875253,-0.0210085,-0.033867,-0.213314,0.0384293,0,1.4,0,12291,49.047,25.497,12505.5
3386825803,0.634768,2.223,122.861,-0.0296564,0.0183368,0.963595,-1.18579,0.846913,-0.0246176,-0.0276002,-0.104054,0.00379362,0,1.4,0,12291,49.047,25.497,12505.5
3386926104,0.634768,2.223,122.864,-0.0214214,0.0152982,0.963687,-1.17026,0.834126,-0.0166798,0.018931,-0.0130275,0.0253355,0,1.4,0,12291,49.047,25.497,12505.5
3387026530,0.634768,2.223,122.863,-0.015988,0.0133549,0.963922,-1.1656,0.828255,-0.02105,0.0330196,0.0998881,-0.0300821,0,1.4,0,12291,49.047,25.497,12505.5
3387126897,0.634768,2.223,122.863,-0.0126203,0.0106056,0.963975,-1.16757,0.827163,-0.0168497,0.0551034,0.0923426,0.166816,0,1.4,0,12291,49.047,25.497,12505.5
3387227236,0.634768,2.223,122.869,-0.0106272,0.00773693,0.963967,-1.17411,0.835042,-0.0168559,0.120007,0.150725,-0.134966,0,1.4,0,12291,49.047,25.497,12505.5
3387327543,0.634768,2.223,122.877,-0.0123633,0.00608302,0.96385,-1.17903,0.840653,-0.0215889,0.0689485,0.079923,-0.071635,0,1.4,0,12291,49.047,25.497,12505.5
3387427999,0.634768,2.223,122.878,-0.013401,0.00371636,0.96361,-1.18237,0.846195,-0.0202103,0.118188,0.0479128,-0.051184,0,-2.8,0,12247,49.07,27.432,13460.9
3387528410,0.634768,2.223,122.885,-0.0423716,0.00261144,0.965198,-1.19676,0.867718,-0.0225742,0.145635,0.314206,0.131953,0,-2.8,0,12247,49.07,27.432,13460.9
3387628720,0.634768,2.223,122.886,-0.19266,-0.00100637,0.963754,-1.16415,0.859119,-0.00437653,0.211279,-0.653371,-0.381258,0,-2.8,0,12247,49.07,27.432,13460.9
3387728991,0.634767,2.223,122.875,-0.323094,-0.0013765,0.964068,-0.986015,0.755752,-0.063261,0.233226,-2.14697,0.535555,0,-2.8,0,12247,49.07,27.432,13460.9
3387829248,0.634767,2.223,122.859,-0.402567,0.000778839,0.963823,-0.70461,0.57574,-0.0841336,0.211383,-3.07418,1.48238,0,-2.8,0,12247,49.07,27.432,13460.9
3387929514,0.634767,2.223,122.847,-0.438277,0.00435699,0.963717,-0.358772,0.348636,-0.0707894,0.161627,-3.60297,2.05191,0,-2.8,0,12247,49.07,27.432,13460.9
3388029827,0.634767,2.223,122.84,-0.445969,0.00547462,0.963445,-0.00324166,0.101708,-0.0485536,0.13125,-3.73444,2.06158,0,-2.8,0,12247,49.07,27.432,13460.9
3388130173,0.634767,2.223,122.828,-0.441511,0.00820916,0.96205,0.35243,-0.131154,-0.0372861,0.192407,-3.77429,1.78203,0,-2.8,0,12247,49.07,27.432,13460.9
3388230478,0.634767,2.223,122.82,-0.434945,0.0146938,0.960035,0.683679,-0.361599,-0.0365944,0.0571383,-3.55571,1.89942,0,-2.8,0,12247,49.07,27.432,13460.9
3388330854,0.634767,2.223,122.833,-0.41421,0.0178936,0.959011,1.00906,-0.605924,-0.0203587,-0.0197953,-3.52403,1.80095,0,-2.8,0,12247,49.07,27.432,13460.9
3388431208,0.634768,2.223,122.847,-0.366113,0.0176689,0.959527,1.30212,-0.833956,-0.00392499,-0.0957333,-3.18204,1.51433,0,-2.8,0,12247,49.108,25.541,12542.7
3388531577,0.634768,2.223,122.847,-0.313765,0.0156551,0.960567,1.54771,-1.02415,-0.00224356,-0.0730374,-2.78422,0.883856,0,-2.8,0,12247,49.108,25.541,12542.7
3388631908,0.634768,2.223,122.847,-0.264681,0.0129727,0.961082,1.74402,-1.17715,-0.00450601,-0.00136967,-2.20519,0.577653,0,-2.8,0,12247,49.108,25.541,12542.7
3388732962,0.634768,2.223,122.855,-0.220547,0.0124467,0.961873,1.89597,-1.30341,0.00641004,-0.0734717,-1.69594,0.549941,0,-2.8,0,12247,49.108,25.541,12542.7
3388837370,0.634768,2.223,122.865,-0.186396,0.0119889,0.961804,2.01197,-1.40152,0.00394155,-0.0208349,-1.34292,0.213979,0,-2.8,0,12247,49.108,25.541,12542.7
3388937734,0.634768,2.223,122.872,-0.161668,0.01081,0.962269,2.09561,-1.46455,-0.00926737,0.0966632,-0.969983,-0.0386592,0,-2.8,0,12247,49.108,25.541,12542.7
3389038034,0.634768,2.223,122.882,-0.139242,0.00715768,0.962724,2.17324,-1.52068,-0.00988131,0.108429,-0.855297,-0.113809,0,-2.8,0,12247,49.108,25.541,12542.7
3389138375,0.634768,2.223,122.892,-0.123474,0.00265041,0.963662,2.2266,-1.56429,-0.0146057,0.0637261,-0.593972,-0.0225659,0,-2.8,0,12247,49.108,25.541,12542.7
3389238716,0.634768,2.223,122.899,-0.110376,0.000465851,0.963666,2.27082,-1.5908,-0.0148722,0.193148,-0.478711,0.0415476,0,-2.8,0,12247,49.108,25.541,12542.7
3389339064,0.634768,2.223,122.903,-0.10248,-0.00138438,0.96344,2.30628,-1.59844,-0.0171186,0.274327,-0.328422,-0.0658419,0,-2.8,0,12247,49.108,25.541,12542.7
3389439442,0.634768,2.223,122.902,-0.097954,-0.00119699,0.96319,2.33191,-1.59595,-0.0329594,0.266076,-0.263888,-0.266423,0,2.3,0,12247,49.108,25.541,12542.7
3389539801,0.634768,2.223,122.898,-0.0771657,-0.00102464,0.960628,2.35397,-1.58801,-0.0429743,0.304575,-0.170471,0.156664,0,2.3,0,12247,49.136,24.466,12021.6
3389640201,0.634768,2.223,122.898,0.131315,-0.00166119,0.961951,2.35379,-1.5644,0.0251626,0.32016,0.260856,0.841652,0,2.3,0,12247,49.136,24.466,12021.6
3389740598,0.634768,2.223,122.912,0.325581,0.00391763,0.963734,2.11935,-1.37311,0.0342399,0.318893,3.11414,0.294237,0,2.3,0,12247,49.136,24.466,12021.6
3389840916,0.634768,2.223,122.91,0.436379,0.0183829,0.967213,1.76137,-1.10952,-0.0709177,0.215841,4.3574,1.18701,0,2.3,0,12247,49.136,24.466,12021.6
3389941259,0.634768,2.223,122.908,0.499054,0.0287631,0.96996,1.28592,-0.788264,-0.0976809,0.0380591,5.02981,2.45214,0,2.3,0,12247,49.136,24.466,12021.6
3390041644,0.634768,2.223,122.895,0.519798,0.0376697,0.973045,0.764936,-0.452899,-0.144318,-0.0931319,5.32886,2.73583,0,2.3,0,12247,49.136,24.466,12021.6
3390141978,0.634768,2.223,122.865,0.511881,0.0308074,0.967772,0.104814,-0.0432218,-0.163182,-0.265327,5.4049,3.17897,0,2.3,0,12247,49.136,24.466,12021.6
3390242251,0.634768,2.223,122.836,0.458209,0.010647,0.957475,-0.428547,0.313608,-0.156498,-0.0131669,5.32613,2.97055,0,2.3,0,12247,49.136,24.466,12021.6
3390342618,0.634768,2.223,122.817,0.357875,-0.00641751,0.953234,-0.86822,0.647096,-0.103903,0.256429,4.50954,2.43869,0,2.3,0,12247,49.136,24.466,12021.6
3390442995,0.634768,2.223,122.8,0.25191,-0.00266712,0.957984,-1.19064,0.914919,-0.0557312,0.351042,3.48664,1.44621,0,2.3,0,12247,49.136,24.466,12021.6
3390543361,0.634768,2.223,122.792,0.159786,0.00630392,0.961949,-1.40578,1.09745,-0.0206808,0.298375,2.31337,0.644937,0,2.3,0,12247,48.982,28.061,13744.8
3390643759,0.634768,2.223,122.789,0.0895471,0.0165784,0.964124,-1.55043,1.21439,0.0023163,0.168411,1.45808,0.355067,0,2.3,0,12247,48.982,28.061,13744.8
3390744115,0.634768,2.223,122.797,0.0461742,0.0242542,0.965006,-1.65405,1.28912,0.0134106,0.0384728,0.971728,0.11153,0,2.3,0,12247,48.982,28.061,13744.8
3390844471,0.634768,2.223,122.804,0.0179799,0.0274525,0.965298,-1.72474,1.33324,0.0152574,0.00723608,0.5447,0.0850317,0,2.3,0,12247,48.982,28.061,13744.8
3390944839,0.634768,2.223,122.813,0.00200043,0.0288071,0.965344,-1.77757,1.35598,0.0125121,-0.128178,0.423595,0.00689729,0,2.3,0,12247,48.982,28.061,13744.8
3391045188,0.634768,2.223,122.823,-0.0075121,0.0291989,0.965382,-1.80375,1.37551,0.0131467,-0.0025062,0.210001,-0.127387,0,2.3,0,12247,48.982,28.061,13744.8
3391145530,0.634768,2.223,122.833,-0.0115688,0.0300625,0.965211,-1.83029,1.38632,0.0061019,-0.117273,0.216579,-0.285443,0,2.3,0,12247,48.982,28.061,13744.8
3391245888,0.634768,2.223,122.849,-0.0135364,0.0295794,0.965216,-1.84987,1.38453,0.00940385,-0.134248,0.146031,-0.0962039,0,2.3,0,12247,48.982,28.061,13744.8
3391346262,0.634768,2.223,122.857,-0.0117074,0.0280495,0.965316,-1.85556,1.37724,0.00141713,-0.0962221,0.099452,-0.290265,0,2.3,0,12247,48.982,28.061,13744.8
3391446628,0.634768,2.223,122.855,-0.00943886,0.0257156,0.965173,-1.85713,1.37114,-0.00805667,-0.0579886,0.0992633,-0.029246,0,3.3,0,12247,48.982,28.061,13744.8
3391546912,0.634768,2.223,122.856,0.0174914,0.023272,0.963821,-1.85928,1.35595,-0.00550627,-0.109383,-0.00667949,-0.00441846,0,3.3,0,12203,49.167,25.243,12411.2
3391647190,0.634768,2.223,122.856,0.0836531,0.0212966,0.966056,-1.8884,1.37574,-0.00473975,0.022301,0.669761,-0.280286,0,3.3,0,12203,49.167,25.243,12411.2
3391747615,0.634768,2.223,122.845,0.13486,0.0224588,0.967007,-1.96613,1.43785,-0.0275013,0.0602146,1.28384,-0.0110375,0,3.3,0,12203,49.167,25.243,12411.2
3391848046,0.634768,2.223,122.839,0.155667,0.0233445,0.967206,-2.08361,1.51797,-0.0294244,0.00215974,1.65623,0.241968,0,3.3,0,12203,49.167,25.243,12411.2
3391948474,0.634767,2.223,122.839,0.150817,0.0231805,0.966765,-2.2077,1.60555,-0.027934,0.0161345,1.6826,0.127918,0,3.3,0,12203,49.167,25.243,12411.2
3392048813,0.634767,2.223,122.832,0.132361,0.022729,0.96628,-2.32929,1.68924,-0.0287883,-0.040851,1.6161,0.34487,0,3.3,0,12203,49.167,25.243,12411.2
3392149152,0.634767,2.223,122.825,0.109109,0.0216307,0.965789,-2.42743,1.76285,-0.0244673,0.0344806,1.32972,0.205532,0,3.3,0,12203,49.167,25.243,12411.2
3392249513,0.634767,2.223,122.818,0.0897418,0.0209743,0.965375,-2.50473,1.82232,-0.0201493,0.0668939,1.10451,0.247983,0,3.3,0,12203,49.167,25.243,12411.2
3392349853,0.634767,2.223,122.811,0.0741737,0.0203031,0.965073,-2.57281,1.86407,-0.0205669,-0.0402596,0.860572,0.265761,0,3.3,0,12203,49.167,25.243,12411.2
3392450166,0.634767,2.223,122.809,0.0604036,0.0184406,0.964904,-2.62606,1.90478,-0.0118449,0.0180124,0.701079,0.257802,0,3.3,0,12203,49.167,25.243,12411.2
3392550526,0.634767,2.223,122.804,0.0482591,0.0182769,0.964471,-2.66838,1.93607,-0.00974095,0.0198043,0.604128,0.149832,0,3.3,0,12203,48.933,28.322,13858.8
3392650874,0.634767,2.223,122.799,0.0407196,0.0178367,0.964507,-2.69752,1.95832,-0.0153291,0.0324646,0.515934,-0.0231231,0,3.3,0,12203,48.933,28.322,13858.8
3392751257,0.634767,2.223,122.799,0.0338238,0.0188399,0.964415,-2.72459,1.98589,-0.0102249,0.0774964,0.427322,0.02832,0,3.3,0,12203,48.933,28.322,13858.8
3392851634,0.634767,2.223,122.8,0.0255929,0.0192076,0.964225,-2.74988,2.00386,-0.00393685,0.00649785,0.381362,-0.122024,0,3.3,0,12203,48.933,28.322,13858.8
3392951975,0.634767,2.223,122.801,0.0192323,0.0196662,0.964001,-2.76666,2.0144,-0.00667511,-0.0352896,0.282768,-0.017962,0,3.3,0,12203,48.933,28.322,13858.8
3393052332,0.634767,2.223,122.796,0.0149756,0.0215804,0.964005,-2.7729,2.02611,-0.0137684,0.0271804,0.176719,0.0553652,0,3.3,0,12203,48.933,28.322,13858.8
3393152668,0.634767,2.223,122.791,0.012369,0.0242691,0.964299,-2.78667,2.02853,-0.0171425,-0.0616001,0.167653,0.138073,0,3.3,0,12203,48.933,28.322,13858.8
3393252960,0.634767,2.223,122.779,0.0118031,0.0245825,0.964291,-2.79653,2.03526,-0.0086547,0.0261282,0.229556,0.294855,0,3.3,0,12203,48.933,28.322,13858.8
3393353355,0.634767,2.223,122.776,0.0109284,0.0268433,0.963959,-2.80929,2.04416,0.00839316,0.0281589,0.177,-0.0585778,0,3.3,0,12203,48.933,28.322,13858.8
3393453734,0.634767,2.223,122.772,0.0100706,0.0265353,0.963692,-2.82609,2.04179,-0.000902601,-0.0927595,0.22611,0.0894386,0,-0.4,0,12203,48.933,28.322,13858.8
3393554092,0.634767,2.223,122.779,-0.00775802,0.0249398,0.964755,-2.83423,2.04585,0.00670756,-0.00754224,0.146001,0.143216,0,-0.4,0,12203,48.933,24.605,12040
3393654460,0.634767,2.223,122.788,-0.172414,0.0195396,0.96104,-2.82782,2.03133,0.0636673,-0.0373851,-0.348255,0.368952,0,-0.4,0,12203,49.088,24.605,12078.1
3393754808,0.634767,2.223,122.803,-0.327392,0.0159671,0.959801,-2.64729,1.91065,0.0260579,0.0545134,-2.44025,-0.244042,0,-0.4,0,12203,49.088,24.605,12078.1
3393855152,0.634767,2.223,122.809,-0.418392,0.0149773,0.959712,-2.35645,1.71389,-0.0357927,0.0915797,-3.41452,1.04718,0,-0.4,0,12203,49.088,24.605,12078.1
3393955481,0.634767,2.223,122.799,-0.455637,0.0164718,0.959321,-1.98043,1.459,-0.0434449,0.0943696,-4.00138,2.06125,0,-0.4,0,12203,49.088,24.605,12078.1
3394055842,0.634767,2.223,122.791,-0.460388,0.0209875,0.957861,-1.57031,1.17946,-0.0315146,0.127814,-4.27009,2.26906,0,-0.4,0,12203,49.088,24.605,12078.1
3394156199,0.634767,2.223,122.779,-0.420959,0.0253101,0.956917,-1.17371,0.907783,-0.0239813,0.0720654,-4.15296,2.04447,0,-0.4,0,12203,49.088,24.605,12078.1
3394256556,0.634767,2.223,122.766,-0.353662,0.0266584,0.957041,-0.830307,0.655961,0.00140211,-0.00667405,-3.58763,1.77792,0,-0.4,0,12203,49.088,24.605,12078.1
3394356917,0.634767,2.223,122.772,-0.287369,0.0273113,0.957058,-0.559317,0.461228,0.0221524,0.0103079,-2.89716,0.911048,0,-0.4,0,12203,49.088,24.605,12078.1
3394458144,0.634767,2.223,122.78,-0.229406,0.0249971,0.957571,-0.354668,0.301038,0.023783,-0.0520758,-2.21422,0.580745,0,-0.4,0,12203,49.088,24.605,12078.1
3394561365,0.634767,2.223,122.785,-0.183156,0.0210832,0.958489,-0.204471,0.183147,0.0178269,-0.00451983,-1.60705,0.259404,0,-0.4,0,12203,49.088,24.605,12078.1
3394661724,0.634767,2.223,122.794,-0.147603,0.019584,0.959207,-0.0866297,0.0972871,0.01237,0.0197246,-1.17527,0.196848,0,-0.4,0,12203,49.101,24.732,12143.7
3394762033,0.634767,2.223,122.803,-0.12062,0.0191273,0.960065,0.0196956,0.0169672,0.0100963,0.024711,-0.859971,0.024491,0,-0.4,0,12203,49.101,24.732,12143.7
3394862383,0.634767,2.223,122.814,-0.101663,0.0181331,0.960539,0.0868934,-0.0414194,0.00964805,-0.0192422,-0.665104,0.0670003,0,-0.4,0,12203,49.101,24.732,12143.7
3394962745,0.634767,2.223,122.816,-0.0874275,0.0156521,0.961112,0.136892,-0.0721972,0.00544551,0.113965,-0.414013,0.0594596,0,-0.4,0,12203,49.101,24.732,12143.7
3395063096,0.634767,2.223,122.817,-0.0777821,0.0151315,0.961921,0.16277,-0.0931335,-0.00244057,0.0742696,-0.231175,-0.0249149,0,-0.4,0,12203,49.101,24.732,12143.7
3395163424,0.634767,2.223,122.817,-0.071958,0.0143897,0.962421,0.19414,-0.110188,-0.000762913,0.147202,-0.29625,-0.0730178,0,-0.4,0,12203,49.101,24.732,12143.7
3395263687,0.634767,2.223,122.82,-0.0678409,0.0151986,0.962779,0.211638,-0.125884,-0.00586474,0.0505573,-0.212634,-0.294085,0,-0.4,0,12203,49.101,24.732,12143.7
3395363992,0.634767,2.223,122.825,-0.0658477,0.014857,0.962695,0.233146,-0.134577,-0.000726547,0.151986,-0.233619,-0.0433906,0,-0.4,0,12203,49.101,24.732,12143.7
3395464413,0.634767,2.223,122.823,-0.0645831,0.0162071,0.962702,0.239451,-0.14757,-0.0096759,0.0221083,-0.132384,-0.042681,0,4.6,0,12203,49.101,24.732,12143.7
3395564761,0.634767,2.223,122.817,-0.0421436,0.015078,0.960636,0.243811,-0.156532,-0.00550129,0.00652644,-0.142711,0.490952,0,4.6,0,12203,49.101,24.732,12143.7
3395665111,0.634767,2.223,122.817,0.151777,0.0132773,0.963693,0.205563,-0.126588,0.0535405,0.106082,0.821634,0.294415,0,4.6,0,12203,49.099,25.134,12340.5
3395765535,0.634767,2.223,122.825,0.32943,0.0105893,0.96523,-0.0381848,0.0413851,0.00160512,0.0806945,3.10754,0.0357168,0,4.6,0,12203,49.099,25.134,12340.5
3395865899,0.634767,2.223,122.826,0.421825,0.00826397,0.964343,-0.395075,0.290705,-0.0639506,0.112644,4.05101,1.59145,0,4.6,0,12203,49.099,25.134,12340.5
3395966323,0.634767,2.223,122.826,0.469202,0.0071144,0.963559,-0.823777,0.600845,-0.0786389,0.17004,4.7209,2.17228,0,4.6,0,12203,49.099,25.134,12340.5
3396066656,0.634767,2.223,122.823,0.476235,0.00963615,0.964079,-1.28366,0.932231,-0.0773562,0.193035,4.84339,2.67368,0,4.6,0,12203,49.099,25.134,12340.5
3396166948,0.634767,2.223,122.813,0.46546,0.0141123,0.965036,-1.74921,1.26038,-0.0567049,0.0736017,4.79971,2.72955,0,4.6,0,12203,49.099,25.134,12340.5
3396267250,0.634767,2.223,122.807,0.441937,0.0185362,0.966505,-2.20313,1.57129,-0.0426437,0.0158683,4.67156,2.34641,0,4.6,0,12203,49.099,25.134,12340.5
3396367613,0.634767,2.223,122.807,0.366689,0.0213275,0.966772,-2.61086,1.84192,-0.019979,-0.033195,4.12724,1.97099,0,4.6,0,12203,49.099,25.134,12340.5
3396468042,0.634766,2.223,122.814,0.292185,0.0203038,0.966438,-2.95101,2.06133,0.0190911,-0.0886145,3.45761,1.22172,0,4.6,0,12203,49.099,25.134,12340.5
3396568339,0.634766,2.223,122.82,0.217716,0.0181376,0.96582,-3.19809,2.22947,0.0298181,0.0127845,2.59918,0.548709,0,4.6,0,12203,49.099,25.134,12340.5
3396668836,0.634766,2.223,122.821,0.163642,0.0185844,0.965809,-3.3807,2.36135,0.0277783,-0.00436714,1.90362,0.376239,0,4.6,0,12203,49.028,26.28,12884.6
3396769187,0.634766,2.223,122.824,0.119962,0.0186464,0.96537,-3.51121,2.45568,0.0142545,0.0237125,1.30149,-0.0243394,0,4.6,0,12203,49.028,26.28,12884.6
3396869557,0.634766,2.223,122.831,0.0910192,0.0179966,0.964674,-3.60492,2.52224,0.00764134,-0.00444458,0.992514,-0.054644,0,4.6,0,12203,49.028,26.28,12884.6
3396969914,0.634766,2.223,122.829,0.0709039,0.0149658,0.964349,-3.68055,2.57795,-0.00112527,0.0496257,0.780304,0.106085,0,4.6,0,12203,49.028,26.28,12884.6
3397070280,0.634766,2.223,122.829,0.0552078,0.0143884,0.963884,-3.72459,2.62183,-0.0124272,0.0745344,0.516254,-0.0979786,0,4.6,0,12203,49.028,26.28,12884.6
3397170623,0.634766,2.223,122.833,0.0448459,0.0151885,0.963225,-3.75536,2.66096,-0.00894071,0.12337,0.400734,0.0798782,0,4.6,0,12203,49.028,26.28,12884.6
3397270965,0.634766,2.223,122.837,0.0371761,0.0161915,0.962478,-3.77459,2.69195,-0.0151536,0.135367,0.321525,0.0328909,0,4.6,0,12203,49.028,26.28,12884.6
3397371316,0.634766,2.223,122.831,0.0322315,0.0183291,0.961717,-3.78513,2.7172,-0.011785,0.0621762,0.245408,0.0362153,0,4.6,0,12203,49.028,26.28,12884.6
3397471717,0.634766,2.223,122.832,0.0299714,0.0201882,0.961572,-3.79012,2.73789,-0.00861628,0.0717395,0.279105,-0.092989,0,-4.1,0,12203,49.028,26.28,12884.6
3397572093,0.634766,2.223,122.831,-0.0101297,0.0221485,0.963237,-3.8051,2.74998,-0.0150454,-0.0245591,0.337247,0.313053,0,-4.1,0,12203,49.028,26.28,12884.6
3397672413,0.634766,2.223,122.831,-0.20322,0.0189334,0.959145,-3.76793,2.72183,0.0350397,-0.0495031,-0.671058,0.27105,0,-4.1,0,12203,49.106,25.449,12497
3397772780,0.634766,2.223,122.831,-0.353745,0.0127077,0.959972,-3.54552,2.57857,-0.0034689,0.0299655,-2.70108,-0.06221,0,-4.1,0,12203,49.106,25.449,12497
3397873134,0.634766,2.223,122.824,-0.439851,0.00920341,0.960327,-3.21041,2.35903,-0.0615695,0.0770603,-3.72131,1.34015,0,-4.1,0,12203,49.106,25.449,12497
3397973488,0.634766,2.223,122.811,-0.474388,0.00630791,0.961776,-2.7835,2.0916,-0.057355,0.19881,-4.28984,2.22079,0,-4.1,0,12203,49.106,25.449,12497
3398073842,0.634766,2.223,122.804,-0.476484,0.00554702,0.961866,-2.33971,1.80795,-0.0477426,0.17575,-4.48853,2.21031,0,-4.1,0,12203,49.106,25.449,12497
3398174180,0.634766,2.223,122.786,-0.465248,0.00733156,0.961264,-1.89247,1.52207,-0.0334524,0.202893,-4.38608,2.49112,0,-4.1,0,12203,49.106,25.449,12497
3398274516,0.634766,2.223,122.773,-0.454747,0.0109571,0.96002,-1.47461,1.24306,-0.016859,0.150781,-4.24385,2.14409,0,-4.1,0,12203,49.106,25.449,12497
3398374854,0.634766,2.223,122.765,-0.44261,0.0146847,0.958532,-1.0762,0.973076,-0.0149408,0.112613,-4.00386,1.97647,0,-4.1,0,12203,49.106,25.449,12497
3398475204,0.634765,2.223,122.757,-0.427686,0.0170964,0.957996,-0.689588,0.702021,-0.00724392,0.0954865,-3.94868,1.91039,0,-4.1,0,12203,49.106,25.449,12497
3398575562,0.634766,2.223,122.749,-0.418146,0.019497,0.957507,-0.329337,0.444112,0.0121954,0.00752151,-3.64589,1.79659,0,-4.1,0,12203,49.106,25.449,12497
3398675940,0.634766,2.223,122.742,-0.411797,0.0200798,0.957549,0.00992811,0.188108,0.0123505,-0.0990261,-3.56673,1.53063,0,-4.1,0,12203,49.106,25.449,12497
3398776359,0.634766,2.223,122.739,-0.406876,0.0197434,0.957975,0.345742,-0.0578856,0.0165212,0.00621573,-3.55284,1.4141,0,-4.1,0,12203,48.963,28.844,14122.9
3398876721,0.634766,2.223,122.732,-0.402016,0.0197284,0.958007,0.669021,-0.292634,0.0194173,0.00198174,-3.34828,1.61643,0,-4.1,0,12203,48.963,28.844,14122.9
3398977069,0.634766,2.223,122.733,-0.397998,0.0192597,0.958663,0.981929,-0.524549,0.0132593,-0.000134338,-3.22915,1.5031,0,-4.1,0,12203,48.963,28.844,14122.9
3399077475,0.634766,2.223,122.734,-0.395317,0.0211078,0.958811,1.28903,-0.747287,0.0207274,0.0320862,-3.20973,1.43987,0,-4.1,0,12203,48.963,28.844,14122.9
3399177844,0.634766,2.223,122.742,-0.393194,0.0250739,0.957851,1.58025,-0.963038,0.0216999,0.0151606,-3.2269,1.03262,0,-4.1,0,12203,48.963,28.844,14122.9
3399278169,0.634766,2.223,122.751,-0.389261,0.0294982,0.956733,1.85995,-1.19227,0.0228444,-0.190926,-3.14086,1.23793,0,-4.1,0,12203,48.963,28.844,14122.9
3399378832,0.634766,2.223,122.758,-0.36974,0.0309137,0.956424,2.13188,-1.40561,0.0238451,-0.0759999,-3.08325,1.09392,0,-4.1,0,12203,48.963,28.844,14122.9
3399480555,0.634766,2.223,122.771,-0.33136,0.028832,0.957161,2.36193,-1.59989,0.0364014,-0.139214,-2.63559,0.936124,0,1.4,0,12203,48.963,28.844,14122.9
3399580916,0.634766,2.223,122.773,-0.275862,0.024233,0.956667,2.56267,-1.75884,0.0406234,0.00795311,-2.34912,0.667336,0,1.4,0,12203,48.963,28.844,14122.9
3399681501,0.634766,2.223,122.782,-0.0181533,0.0175497,0.963014,2.71702,-1.89175,0.107382,-0.0388866,-1.52858,1.12918,0,1.4,0,12203,48.963,28.844,14122.9
3399783222,0.634766,2.223,122.803,0.277965,0.011108,0.965955,2.53178,-1.77031,0.1777,0.163242,2.65405,0.165175,0,1.4,0,12203,48.996,26.405,12937.4
3399883559,0.634766,2.223,122.828,0.43279,0.0142796,0.966804,2.17793,-1.51436,0.0577664,0.195874,4.33726,1.04214,0,1.4,0,12203,48.996,26.405,12937.4
3399983769,0.634766,2.223,122.835,0.508942,0.0240363,0.970983,1.70905,-1.20275,0.000381723,0.00670932,5.17884,2.1726,0,1.4,0,12203,48.996,26.405,12937.4
3400084069,0.634766,2.223,122.832,0.541046,0.0314259,0.973117,1.17559,-0.859295,-0.0630219,-0.096672,5.6077,2.70695,0,1.4,0,12203,48.996,26.405,12937.4
3400184386,0.634766,2.223,122.82,0.53805,0.0315144,0.971347,0.612755,-0.514098,-0.11127,-0.285762,5.6204,3.10649,0,1.4,0,12203,48.996,26.405,12937.4
3400284775,0.634766,2.223,122.8,0.471087,0.0169744,0.963315,0.056427,-0.157588,-0.113569,-0.18401,5.42926,3.15285,0,1.4,0,12203,48.996,26.405,12937.4
3400385144,0.634766,2.223,122.767,0.365508,-0.0121812,0.952715,-0.401173,0.159734,-0.0873741,0.0491856,4.62894,2.09715,0,1.4,0,12203,48.996,26.405,12937.4
3400485516,0.634766,2.223,122.734,0.247413,-0.0253042,0.953663,-0.731633,0.439888,-0.0589881,0.39165,3.57647,1.50041,0,1.4,0,12203,48.996,26.405,12937.4
3400585880,0.634766,2.223,122.722,0.148821,-0.0178139,0.958978,-0.951799,0.657578,-0.0061611,0.505368,2.46409,0.719598,0,1.4,0,12203,48.996,26.405,12937.4
3400686192,0.634766,2.223,122.72,0.0723121,-0.00594119,0.962157,-1.09374,0.797826,0.0190516,0.343968,1.44136,0.449529,0,1.4,0,12203,48.996,26.405,12937.4
3400787730,0.634766,2.223,122.724,0.0164078,0.00563192,0.963408,-1.17561,0.887187,0.0372134,0.243468,0.742912,0.0917871,0,1.4,0,12203,49.038,26.405,12948.5
3400888088,0.634766,2.223,122.734,-0.0155379,0.0145811,0.963908,-1.23274,0.932154,0.0425594,0.0461432,0.36158,0.0624496,0,1.4,0,12203,49.038,26.405,12948.5
3400988445,0.634766,2.223,122.754,-0.0323239,0.0199353,0.963638,-1.2615,0.960337,0.0512376,0.0374343,0.0543811,-0.000644307,0,1.4,0,12203,49.038,26.405,12948.5
3401088780,0.634766,2.223,122.764,-0.041449,0.0253719,0.96348,-1.28622,0.968024,0.0449084,-0.121517,-0.001437,-0.125,0,1.4,0,12203,49.038,26.405,12948.5
3401189135,0.634766,2.223,122.773,-0.0459144,0.0265888,0.963423,-1.29762,0.97127,0.0401002,-0.0589081,-0.0904008,-0.0556442,0,1.4,0,12203,49.038,26.405,12948.5
3401289526,0.634766,2.223,122.784,-0.0467157,0.0259675,0.963567,-1.30354,0.95993,0.0346297,-0.186054,-0.130751,-0.202483,0,1.4,0,12203,49.038,26.405,12948.5
3401389854,0.634766,2.223,122.784,-0.0450303,0.0238299,0.963433,-1.30217,0.952827,0.0263477,-0.0417925,-0.0871619,0.0380104,0,1.4,0,12203,49.038,26.405,12948.5
3401490271,0.634766,2.223,122.778,-0.0431854,0.0238472,0.963545,-1.29978,0.954052,0.0240063,-0.0176263,-0.0484477,-0.150249,0,-4.6,0,12203,49.038,26.405,12948.5
3401590587,0.634766,2.223,122.779,-0.0705733,0.022231,0.96481,-1.3062,0.94731,0.0174731,-0.115154,0.097031,0.183366,0,-4.6,0,12203,49.038,26.405,12948.5
3401690980,0.634766,2.223,122.775,-0.218282,0.0172017,0.961593,-1.25732,0.913432,0.0265635,0.0148352,-0.838535,-0.286674,0,-4.6,0,12203,49.038,26.405,12948.5
3401791299,0.634766,2.223,122.772,-0.345298,0.0119367,0.961214,-1.07673,0.795497,-0.0178971,0.0975819,-2.15981,0.371132,0,-4.6,0,12159,48.947,27.773,13594.1
3401891692,0.634766,2.223,122.759,-0.42054,0.00888453,0.961859,-0.779937,0.597059,-0.0351582,0.0109542,-3.21452,1.48561,0,-4.6,0,12159,48.947,27.773,13594.1
3401992095,0.634766,2.223,122.754,-0.454328,0.00917948,0.961608,-0.424034,0.354873,-0.0192993,0.0722042,-3.71292,1.81545,0,-4.6,0,12159,48.947,27.773,13594.1
3402092458,0.634766,2.223,122.75,-0.458901,0.0100428,0.961379,-0.0492324,0.107111,-0.0160886,0.113556,-3.86142,1.9408,0,-4.6,0,12159,48.947,27.773,13594.1
3402192820,0.634766,2.223,122.738,-0.453212,0.0106369,0.96114,0.3238,-0.150151,-0.00326923,0.0560836,-3.72258,2.20795,0,-4.6,0,12159,48.947,27.773,13594.1
3402293171,0.634766,2.223,122.727,-0.446134,0.0114318,0.960723,0.681919,-0.399735,-0.0017646,0.0474281,-3.69331,1.83313,0,-4.6,0,12159,48.947,27.773,13594.1
3402393534,0.634766,2.223,122.728,-0.434719,0.0123213,0.960361,1.0362,-0.636271,0.0141943,0.120807,-3.52623,1.78804,0,-4.6,0,12159,48.947,27.773,13594.1
3402493824,0.634766,2.223,122.739,-0.421759,0.0143446,0.959908,1.37127,-0.864046,0.0306859,0.0518528,-3.45228,1.40483,0,-4.6,0,12159,48.947,27.773,13594.1
3402594194,0.634766,2.223,122.742,-0.4154,0.0167156,0.959558,1.68168,-1.08194,0.0283861,0.0223378,-3.24276,1.31038,0,-4.6,0,12159,48.947,27.773,13594.1
3402694546,0.634766,2.223,122.744,-0.411809,0.017987,0.959662,1.97892,-1.29321,0.0228223,0.0217312,-3.15329,1.17956,0,-4.6,0,12159,48.947,27.773,13594.1
3402794870,0.634766,2.223,122.75,-0.409574,0.0209156,0.959405,2.27118,-1.50018,0.0256129,-0.00619297,-3.10442,1.10011,0,-4.6,0,12159,48.947,27.058,13244.1
3402895161,0.634766,2.223,122.756,-0.39033,0.0220359,0.959646,2.56114,-1.71124,0.0260619,-0.0374493,-3.01935,1.33763,0,-4.6,0,12159,48.947,27.058,13244.1
3402995491,0.634766,2.223,122.766,-0.349042,0.0215285,0.959705,2.81336,-1.90205,0.047947,-0.0217246,-2.6325,0.971424,0,-4.6,0,12159,48.947,27.058,13244.1
3403095852,0.634766,2.223,122.778,-0.306741,0.0204036,0.959482,3.02629,-2.05636,0.0605098,0.0331832,-2.28427,0.53254,0,-4.6,0,12159,48.947,27.058,13244.1
3403196237,0.634766,2.223,122.796,-0.268428,0.0186022,0.960311,3.19123,-2.1741,0.0631797,0.0583296,-1.6436,0.781346,0,-4.6,0,12159,48.947,27.058,13244.1
3403296603,0.634766,2.223,122.807,-0.241965,0.0153309,0.961269,3.32874,-2.27532,0.0624341,0.0782864,-1.53113,0.385945,0,-4.6,0,12159,48.947,27.058,13244.1
3403397462,0.634766,2.223,122.819,-0.220708,0.0156543,0.961944,3.44417,-2.3414,0.055546,0.226779,-1.14486,0.17389,0,-4.6,0,12159,48.947,27.058,13244.1
3403499506,0.634766,2.223,122.828,-0.204716,0.0151109,0.962344,3.53207,-2.38689,0.0355157,0.258614,-0.875121,0.00444217,0,0.4,0,12159,48.947,27.058,13244.1
3403599897,0.634766,2.223,122.825,-0.178778,0.0165901,0.961035,3.6107,-2.42517,0.00718991,0.250261,-0.784172,-0.0290171,0,0.4,0,12159,48.947,27.058,13244.1
3403700300,0.634766,2.223,122.825,0.0445199,0.0111866,0.964016,3.6802,-2.45059,0.0550977,0.305404,-0.400066,0.838172,0,0.4,0,12159,48.947,27.058,13244.1
3403800655,0.634766,2.223,122.838,0.295744,0.00365429,0.963747,3.4903,-2.29047,0.147476,0.375229,2.61238,1.29386,0,0.4,0,12159,48.947,27.058,13244.1
3403900997,0.634766,2.223,122.85,0.413658,0.0153229,0.964811,3.12673,-2.00571,0.10115,0.297977,4.53952,0.774659,0,0.4,0,12159,48.947,27.058,13244.1
3404003333,0.634766,2.223,122.86,0.458043,0.0168586,0.963711,2.69515,-1.71438,0.0477397,0.0315555,4.80218,1.91429,0,0.4,0,12159,48.947,27.058,13244.1
3404105937,0.634766,2.223,122.863,0.476743,0.0194168,0.962602,2.15184,-1.33256,-0.0345037,0.0739703,5.0304,2.05818,0,0.4,0,12159,48.947,27.058,13244.1
3404206297,0.634766,2.223,122.854,0.477976,0.016885,0.961064,1.67604,-1.01299,-0.0895738,-0.047744,5.14521,2.06075,0,0.4,0,12159,48.947,27.058,13244.1
3404306668,0.634766,2.223,122.826,0.438802,0.0192635,0.961161,1.20044,-0.6868,-0.117809,-0.0306681,4.94274,2.3545,0,0.4,0,12159,48.958,26.641,13042.9
3404406981,0.634766,2.223,122.788,0.367228,0.0202558,0.959651,0.778792,-0.381667,-0.152175,0.126901,4.46628,1.897,0,0.4,0,12159,48.958,26.641,13042.9
3404507348,0.634766,2.223,122.756,0.282763,0.0236192,0.959408,0.42404,-0.121356,-0.144341,0.141388,3.68639,1.49071,0,0.4,0,12159,48.958,26.641,13042.9
3404607721,0.634766,2.223,122.729,0.192301,0.020981,0.958584,0.143213,0.0646011,-0.126139,-0.037134,2.71249,1.30698,0,0.4,0,12159,48.958,26.641,13042.9
3404708148,0.634766,2.223,122.716,0.110868,0.0124951,0.958083,-0.0646676,0.228572,-0.0723343,0.203039,2.09771,0.781006,0,0.4,0,12159,48.958,26.641,13042.9
3404808527,0.634766,2.223,122.716,0.0462734,0.0140399,0.959926,-0.200805,0.347143,-0.0187088,0.259815,1.36139,0.468992,0,0.4,0,12159,48.958,26.641,13042.9
3404908908,0.634766,2.223,122.733,-0.00146713,0.017527,0.96127,-0.284401,0.416391,0.0168103,0.15025,0.750457,0.396781,0,0.4,0,12159,48.958,26.641,13042.9
3405009274,0.634766,2.223,122.752,-0.03151,0.0226274,0.962166,-0.324144,0.466361,0.0392205,0.211322,0.349294,0.0582242,0,0.4,0,12159,48.958,26.641,13042.9
3405109641,0.634766,2.223,122.764,-0.0488217,0.0285219,0.962291,-0.347685,0.497961,0.0431592,0.102633,0.200201,-0.0171736,0,0.4,0,12159,48.958,26.641,13042.9
3405209988,0.634766,2.223,122.775,-0.0623247,0.0334142,0.962172,-0.361786,0.504694,0.0315177,-0.0139163,0.00364611,-0.152043,0,0.4,0,12159,48.958,26.641,13042.9
3405310358,0.634766,2.223,122.788,-0.0705274,0.0367253,0.961615,-0.365458,0.498458,0.0341232,-0.0933173,-0.136746,-0.126541,0,0.4,0,12159,48.958,26.641,13042.9
3405410700,0.634766,2.223,122.796,-0.0726171,0.0388781,0.961498,-0.358198,0.481384,0.0243108,-0.0991765,-0.188101,-0.347011,0,0.4,0,12115,49.014,28.306,13873.9
3405511089,0.634766,2.223,122.801,-0.0712124,0.0403361,0.961601,-0.341017,0.470373,0.0187411,0.00638381,-0.150278,-0.0215938,0,-2.4,0,12115,49.014,28.306,13873.9
3405611434,0.634766,2.223,122.801,-0.100051,0.0416544,0.961925,-0.330604,0.451962,0.0206246,-0.06638,-0.0854942,0.177568,0,-2.4,0,12115,49.014,28.306,13873.9
3405711787,0.634766,2.223,122.8,-0.22965,0.0382811,0.956061,-0.28858,0.41031,0.0311501,-0.137104,-0.832319,-0.42562,0,-2.4,0,12115,49.014,28.306,13873.9
3405812129,0.634766,2.223,122.794,-0.349255,0.035077,0.955358,-0.119247,0.28761,-0.0346346,-0.0292974,-2.10168,0.339722,0,-2.4,0,12115,49.014,28.306,13873.9
3405912475,0.634766,2.223,122.788,-0.424723,0.033902,0.955421,0.157239,0.0891908,-0.0499936,-0.0157571,-3.12084,1.22734,0,-2.4,0,12115,49.014,28.306,13873.9
3406012846,0.634766,2.223,122.782,-0.453704,0.035429,0.955656,0.495203,-0.147204,-0.0470249,-0.00171956,-3.63299,1.66464,0,-2.4,0,12115,49.014,28.306,13873.9
3406113198,0.634766,2.223,122.764,-0.427218,0.0374444,0.956488,0.856637,-0.414873,-0.0233748,-0.0845378,-3.79443,2.05385,0,-2.4,0,12115,49.014,28.306,13873.9
3406213553,0.634766,2.223,122.748,-0.372269,0.0385795,0.957603,1.17312,-0.644269,0.00818488,-0.0107081,-3.36005,1.39125,0,-2.4,0,12115,49.014,28.306,13873.9
3406313859,0.634766,2.223,122.747,-0.317455,0.0411911,0.9578,1.42554,-0.835739,0.0244866,-0.0554219,-2.71798,1.14012,0,-2.4,0,12115,49.014,28.306,13873.9
3406414234,0.634766,2.223,122.738,-0.266405,0.0417738,0.958321,1.62005,-0.991228,0.0261184,-0.11275,-2.21266,0.394576,0,-2.4,0,12115,49.117,26.378,12956.1
3406514613,0.634766,2.223,122.728,-0.222347,0.0420466,0.958913,1.77951,-1.12333,0.0222846,-0.160086,-1.66853,0.600098,0,-2.4,0,12115,49.117,26.378,12956.1
3406616520,0.634766,2.223,122.721,-0.185981,0.0398,0.959663,1.88911,-1.22451,0.0221515,-0.168346,-1.24169,0.188728,0,-2.4,0,12115,49.117,26.378,12956.1
3406720812,0.634767,2.223,122.717,-0.1545,0.0373329,0.960526,1.96957,-1.31325,0.0152445,-0.215678,-0.869002,0.297905,0,-2.4,0,12115,49.117,26.378,12956.1
3406821202,0.634767,2.223,122.717,-0.129315,0.035644,0.961159,2.0338,-1.37905,0.0255347,-0.153959,-0.654725,0.194056,0,-2.4,0,12115,49.117,26.378,12956.1
3406921541,0.634767,2.223,122.723,-0.111765,0.0322825,0.961593,2.06761,-1.42406,0.0260223,-0.131211,-0.378446,0.0119872,0,-2.4,0,12115,49.117,26.378,12956.1
3407021897,0.634767,2.223,122.73,-0.0991945,0.0273345,0.962039,2.09624,-1.46445,0.0384381,-0.0947513,-0.315523,-0.0292974,0,-2.4,0,12115,49.117,26.378,12956.1
3407122243,0.634767,2.223,122.736,-0.0909441,0.022607,0.962531,2.1086,-1.49422,0.0348893,-0.104569,-0.169581,0.0861806,0,-2.4,0,12115,49.117,26.378,12956.1
3407222585,0.634767,2.223,122.745,-0.0835754,0.0188573,0.962632,2.11776,-1.50982,0.0336725,0.0124028,-0.0666881,-0.105402,0,-2.4,0,12115,49.117,26.378,12956.1
3407322940,0.634767,2.223,122.754,-0.0760157,0.0171247,0.963325,2.12672,-1.50867,0.0510413,0.119694,0.0188934,0.0145608,0,-2.4,0,12115,49.117,26.378,12956.1
3407423293,0.634767,2.223,122.763,-0.0718033,0.0174314,0.963255,2.12137,-1.50139,0.0421729,0.0552969,0.0925138,-0.125555,0,-2.4,0,12071,49.015,25.148,12326.3
3407523697,0.634767,2.223,122.767,-0.0735554,0.0160904,0.963685,2.10126,-1.49341,0.0393102,0.0544136,0.169753,-0.0101833,0,-4.7,0,12071,49.015,25.148,12326.3
3407624081,0.634767,2.223,122.769,-0.0929734,0.0143239,0.964947,2.08939,-1.48573,0.0481469,0.0815624,0.197797,0.442692,0,-4.7,0,12071,49.015,25.148,12326.3
3407724423,0.634767,2.223,122.771,-0.200756,0.0128728,0.962667,2.11547,-1.49569,0.0326924,0.119676,-0.703146,-0.845454,0,-4.7,0,12071,49.015,25.148,12326.3
3407824788,0.634767,2.223,122.765,-0.313377,0.0109899,0.961458,2.24951,-1.57705,-0.0309686,0.141904,-1.76539,0.246395,0,-4.7,0,12071,49.015,25.148,12326.3
3407925100,0.634767,2.223,122.76,-0.385798,0.0129007,0.961029,2.47822,-1.72111,-0.0445591,0.180878,-2.55508,1.09705,0,-4.7,0,12071,49.015,25.148,12326.3
3408025455,0.634767,2.223,122.753,-0.403787,0.0155732,0.960607,2.74874,-1.90065,-0.0425603,0.109493,-2.98996,1.48687,0,-4.7,0,12071,49.015,25.148,12326.3
3408125770,0.634767,2.223,122.738,-0.378597,0.0202328,0.959382,3.0196,-2.07817,-0.0164061,0.116478,-2.85931,1.46044,0,-4.7,0,12071,49.015,25.148,12326.3
3408226133,0.634767,2.223,122.725,-0.340466,0.0247371,0.95819,3.25411,-2.24034,-0.00122826,0.0610464,-2.62305,1.16801,0,-4.7,0,12071,49.015,25.148,12326.3
3408326495,0.634767,2.223,122.716,-0.297053,0.0292719,0.957528,3.44869,-2.38255,0.0249037,-0.0352396,-2.14913,1.09741,0,-4.7,0,12071,49.015,25.148,12326.3
3408426851,0.634767,2.223,122.708,-0.258711,0.0312606,0.957668,3.59497,-2.50126,0.056844,-0.0213598,-1.64672,0.723036,0,-4.7,0,12071,48.85,27.773,13567.1
3408527194,0.634767,2.223,122.708,-0.22714,0.0281628,0.958745,3.70551,-2.59659,0.0561851,-0.0486279,-1.28267,0.595382,0,-4.7,0,12071,48.85,27.773,13567.1
3408627536,0.634767,2.223,122.713,-0.202008,0.0220859,0.960623,3.79742,-2.66709,0.0591295,0.036176,-1.04203,0.195807,0,-4.7,0,12071,48.85,27.773,13567.1
3408727878,0.634767,2.223,122.728,-0.181304,0.0202022,0.961325,3.87202,-2.7137,0.0633797,0.110858,-0.789705,0.00230883,0,-4.7,0,12071,48.85,27.773,13567.1
3408828271,0.634767,2.223,122.742,-0.16618,0.0190543,0.961215,3.92759,-2.73709,0.0547633,0.187643,-0.512288,-0.0643013,0,-4.7,0,12071,48.85,27.773,13567.1
3408928610,0.634767,2.223,122.749,-0.153911,0.0192939,0.961087,3.97704,-2.76207,0.04879,0.183205,-0.522786,0.138712,0,-4.7,0,12071,48.85,27.773,13567.1
3409028930,0.634768,2.223,122.756,-0.142338,0.0189808,0.961553,4.01037,-2.78298,0.0462526,0.149988,-0.361605,-0.153888,0,-4.7,0,12071,48.85,27.773,13567.1
3409129330,0.634768,2.223,122.757,-0.134029,0.021354,0.961811,4.037,-2.79719,0.0333294,0.0982578,-0.269381,0.0656855,0,-4.7,0,12071,48.85,27.773,13567.1
3409229695,0.634768,2.223,122.749,-0.12818,0.0178266,0.96231,4.05436,-2.80039,0.0391615,0.21341,-0.178062,0.0458177,0,-4.7,0,12071,48.85,27.773,13567.1
3409330043,0.634768,2.223,122.746,-0.12336,0.0178649,0.961769,4.07515,-2.79993,0.0274401,0.168463,-0.187629,0.11723,0,-4.7,0,12071,48.85,27.773,13567.1
3409430372,0.634768,2.223,122.737,-0.119492,0.0198783,0.960776,4.08213,-2.80578,0.016575,0.0378389,-0.0976786,-0.0100894,0,-4.7,0,12071,48.909,26.353,12889
3409530741,0.634768,2.223,122.729,-0.116692,0.0215586,0.960414,4.09309,-2.80176,0.00728668,0.128897,-0.0739448,0.175294,0,4.1,0,12071,48.909,26.353,12889
3409631159,0.634768,2.223,122.725,-0.0717932,0.0236268,0.958536,4.09203,-2.80693,0.0196893,0.0479407,-0.0681051,0.579988,0,4.1,0,12071,48.909,26.353,12889
3409731505,0.634768,2.223,122.735,0.157243,0.0152088,0.964629,4.0425,-2.77055,0.120753,0.110337,0.857562,1.25081,0,4.1,0,12071,48.909,26.353,12889
3409833529,0.634768,2.223,122.753,0.332023,0.0212799,0.967479,3.76027,-2.55553,0.141591,0.185879,3.54328,0.435202,0,4.1,0,12071,48.909,26.353,12889
3409933891,0.634768,2.223,122.768,0.408146,0.0269496,0.969414,3.38041,-2.29724,0.091452,0.0723322,4.22956,1.80123,0,4.1,0,12071,48.909,26.353,12889
3410034232,0.634768,2.223,122.784,0.443933,0.029745,0.971246,2.93555,-2.00104,0.0712334,-0.0300226,5.0098,1.56392,0,4.1,0,12071,48.909,26.353,12889
3410134544,0.634768,2.223,122.793,0.461471,0.0264951,0.970039,2.49032,-1.69909,0.0131342,0.00675726,4.77729,2.33216,0,4.1,0,12071,48.909,26.353,12889
3410234918,0.634768,2.223,122.793,0.47654,0.023273,0.969813,2.03015,-1.38629,-0.0297827,0.0457737,5.10831,1.81115,0,4.1,0,12071,48.909,26.353,12889
3410335278,0.634768,2.223,122.772,0.490909,0.0188928,0.96699,1.56115,-1.06589,-0.0788842,-0.0132851,5.04666,2.33685,0,4.1,0,12071,48.909,26.353,12889
3410435618,0.634768,2.223,122.744,0.499072,0.0164635,0.964109,1.06427,-0.707587,-0.0963904,0.183507,5.30034,2.61552,0,4.1,0,12071,48.965,26.024,12742.7
3410535947,0.634768,2.223,122.716,0.493445,0.0102417,0.96052,0.567733,-0.345184,-0.119239,0.164331,5.21048,2.82959,0,4.1,0,12071,48.965,26.024,12742.7
3410636312,0.634768,2.223,122.695,0.478557,-0.00502279,0.952032,0.0600066,0.0280386,-0.0969692,0.161862,5.16649,3.02548,0,4.1,0,12071,48.965,26.024,12742.7
3410736643,0.634768,2.223,122.686,0.456515,-0.00987754,0.950965,-0.420859,0.417202,-0.0763257,0.409266,5.01644,3.13524,0,4.1,0,12071,48.965,26.024,12742.7
3410837002,0.634768,2.223,122.681,0.436649,0.000530735,0.957031,-0.888427,0.79515,-0.0247261,0.39135,4.98209,2.62664,0,4.1,0,12071,48.965,26.024,12742.7
3410937364,0.634768,2.223,122.695,0.416086,0.0124553,0.962196,-1.31594,1.1374,0.00999108,0.351755,4.556,2.31222,0,4.1,0,12071,48.965,26.024,12742.7
3411037778,0.634768,2.223,122.715,0.370626,0.0273846,0.966392,-1.72119,1.442,0.0289109,0.158552,4.37731,1.81902,0,4.1,0,12071,48.965,26.024,12742.7
3411138092,0.634768,2.223,122.727,0.297639,0.0377606,0.968267,-2.0671,1.68759,0.0562987,0.022901,3.64464,1.38522,0,4.1,0,12071,48.965,26.024,12742.7
3411238445,0.634768,2.223,122.747,0.228701,0.0445679,0.96964,-2.34292,1.86938,0.0674599,-0.12261,2.91624,0.619602,0,4.1,0,12071,48.965,26.024,12742.7
3411338797,0.634768,2.223,122.764,0.170945,0.0479527,0.970085,-2.55402,1.99782,0.0687079,-0.211085,2.21456,0.385496,0,4.1,0,12071,48.965,26.024,12742.7
3411439145,0.634768,2.223,122.775,0.126458,0.0486269,0.969905,-2.71525,2.09282,0.0696148,-0.190353,1.68569,0.116323,0,4.1,0,12071,48.965,26.024,12742.7
3411539532,0.634768,2.223,122.785,0.0959219,0.048487,0.969523,-2.82924,2.14681,0.0586823,-0.260466,1.19761,-0.23145,0,-4.1,0,12071,49.112,20.967,10297.3
3411639884,0.634768,2.223,122.802,0.0583863,0.0441421,0.97025,-2.91882,2.18316,0.0534709,-0.247222,0.898258,-0.0959231,0,-4.1,0,12071,49.112,20.967,10297.3
3411740276,0.634768,2.223,122.812,-0.151245,0.0317742,0.96307,-2.97621,2.20441,0.119949,-0.168638,0.363028,0.214498,0,-4.1,0,12071,49.112,20.967,10297.3
3411840651,0.634768,2.223,122.824,-0.355133,0.0209589,0.960792,-2.80052,2.09576,0.0601905,0.0400126,-2.4417,-0.556057,0,-4.1,0,12071,49.112,20.967,10297.3
3411941100,0.634768,2.223,122.825,-0.470823,0.0162885,0.960863,-2.47154,1.88888,-0.0293516,0.126498,-3.66126,1.32436,0,-4.1,0,12071,49.112,20.967,10297.3
3412041476,0.634768,2.223,122.812,-0.520573,0.0147842,0.961223,-2.02377,1.59799,-0.0470828,0.112928,-4.56033,2.51693,0,-4.1,0,12071,49.112,20.967,10297.3
3412143507,0.634768,2.223,122.789,-0.530048,0.0142044,0.961759,-1.43293,1.21855,-0.0427416,0.231356,-4.72171,2.88535,0,-4.1,0,12071,49.112,20.967,10297.3
3412247187,0.634768,2.223,122.767,-0.519803,0.014394,0.961494,-0.947466,0.904853,-0.0350584,0.177915,-4.65037,2.82919,0,-4.1,0,12071,49.112,20.967,10297.3
3412347596,0.634768,2.223,122.755,-0.50293,0.0161523,0.961076,-0.478739,0.594306,-0.0243877,0.0871761,-4.57231,2.57014,0,-4.1,0,12071,49.112,20.967,10297.3
3412447994,0.634768,2.223,122.745,-0.48325,0.0203069,0.959855,-0.0334233,0.299119,-0.00152484,0.0986932,-4.13539,2.66957,0,-4.1,0,12071,49.112,20.967,10297.3
3412548426,0.634768,2.223,122.751,-0.466726,0.0250094,0.958505,0.377463,0.0112442,0.0104764,-0.0471762,-4.10493,1.9288,0,-4.1,0,12071,49.135,26.763,13150
