timestamp,lat,log,alt,roll,pitch,yaw,vel_x,vel_y,vel_z,acc_x,acc_y,acc_z,act_vx,act_vy,act_yr,capacity,vol,cur,power
2850410443,0.634769,2.223,91.5792,-0.0081455,8.69227e-06,0.895374,0.00224248,0.0343145,-0.00258131,0.0402684,-0.0317932,0.131561,3.1,1.6,0,12592,49.783,23.718,11807.5
2850510922,0.634769,2.223,91.5662,-0.00868916,-0.00178275,0.895145,0.00253897,0.0317496,-0.00219007,0.0047634,-0.0329911,0.241725,3.1,1.6,0,12592,49.783,23.718,11807.5
2850611299,0.634769,2.223,91.5503,-0.00608327,-0.00836317,0.89656,0.00592213,0.0359033,-0.0071364,0.0686141,-0.02332,0.0361208,3.1,1.6,0,12592,49.783,23.718,11807.5
2850711671,0.634769,2.223,91.5466,0.0533017,-0.126105,0.893768,0.000658486,0.040808,0.0269128,0.272648,0.178073,0.26362,3.1,1.6,0,12592,49.783,23.718,11807.5
2850812040,0.634769,2.223,91.5456,0.128117,-0.257342,0.879242,0.0440133,0.236181,-0.0103487,2.05666,0.954539,-0.132996,3.1,1.6,0,12592,49.733,24.622,12245.3
2850912402,0.634769,2.223,91.5448,0.175659,-0.337873,0.865173,0.107327,0.564278,-0.0386188,2.87452,1.42859,1.34683,3.1,1.6,0,12592,49.733,24.622,12245.3
2851012760,0.634769,2.223,91.5447,0.200216,-0.381298,0.855547,0.195079,0.999733,-0.0236908,3.61706,1.88561,1.691,3.1,1.6,0,12592,49.733,24.622,12245.3
2851113069,0.634769,2.223,91.5446,0.206182,-0.393183,0.852668,0.289529,1.46052,-0.0223523,3.72147,1.90025,2.13325,3.1,1.6,0,12592,49.733,24.622,12245.3
2851214212,0.634769,2.223,91.5284,0.186764,-0.357359,0.86008,0.391333,1.92478,0.00327086,3.72617,1.83122,2.18025,3.1,1.6,0,12592,49.733,24.622,12245.3
2851314640,0.634769,2.223,91.5162,0.15503,-0.303421,0.870378,0.48043,2.32091,0.033505,3.20043,1.56739,1.50765,3.1,1.6,0,12592,49.733,24.622,12245.3
2851414941,0.634769,2.223,91.5316,0.125775,-0.251396,0.878579,0.548595,2.63147,0.0425342,2.63568,1.28171,0.84398,-4.2,-1.6,0,12592,49.733,24.622,12245.3
2851515208,0.634769,2.223,91.5457,0.0854479,-0.175775,0.884764,0.601483,2.87737,0.0506507,1.99016,0.953134,0.955721,-4.2,-1.6,0,12592,49.733,24.622,12245.3
2851615529,0.634769,2.223,91.5581,-0.0349365,0.0791737,0.891248,0.643854,3.04572,0.122986,1.04406,0.45828,0.740749,-4.2,-1.6,0,12592,49.733,24.622,12245.3
2851715911,0.634769,2.223,91.584,-0.132788,0.273175,0.875921,0.583399,2.85791,0.113234,-2.23655,-0.981642,-0.279567,-4.2,-1.6,0,12592,49.733,24.622,12245.3
2851816322,0.634769,2.223,91.6038,-0.18351,0.372079,0.860198,0.491099,2.51164,0.0233786,-3.44178,-1.49135,0.879462,-4.2,-1.6,0,12592,49.733,24.622,12245.3
2851916693,0.634769,2.223,91.6144,-0.208607,0.422838,0.850325,0.36933,2.06027,7.58283e-05,-4.00588,-1.77768,1.91048,-4.2,-1.6,0,12592,49.717,24.995,12426.8
2852017059,0.634769,2.223,91.644,-0.221531,0.446327,0.847041,0.237232,1.56841,-0.0439111,-4.48462,-1.98334,1.61902,-4.2,-1.6,0,12592,49.717,24.995,12426.8
2852117413,0.634769,2.223,91.6751,-0.223085,0.446967,0.847221,0.103284,1.04422,-0.0666997,-4.42182,-2.04537,2.2984,-4.2,-1.6,0,12592,49.717,24.995,12426.8
2852217755,0.634769,2.223,91.679,-0.215278,0.436132,0.850628,-0.0355493,0.511782,-0.0509876,-4.30286,-1.94922,2.38821,-4.2,-1.6,0,12592,49.717,24.995,12426.8
2852318103,0.634769,2.223,91.6883,-0.204615,0.423614,0.854747,-0.167584,0.000939012,-0.0424319,-4.21629,-1.93143,2.16251,-4.2,-1.6,0,12592,49.717,24.995,12426.8
2852418468,0.634769,2.223,91.704,-0.1927,0.406405,0.859335,-0.294479,-0.490499,-0.0402777,-3.98563,-1.83953,1.99217,2.8,2.7,0,12592,49.717,24.995,12426.8
2852518912,0.634769,2.223,91.7091,-0.16523,0.362949,0.87138,-0.409448,-0.955631,-0.0412767,-3.8443,-1.70455,1.71414,2.8,2.7,0,12592,49.717,24.995,12426.8
2852619314,0.634769,2.223,91.6976,-0.0290408,0.12455,0.903476,-0.510959,-1.37684,-0.0274706,-3.13805,-1.41226,1.24239,2.8,2.7,0,12592,49.717,24.995,12426.8
2852719704,0.634769,2.223,91.6825,0.136747,-0.160042,0.88973,-0.544021,-1.42047,-0.00861303,0.210991,0.387734,0.013694,2.8,2.7,0,12592,49.717,24.995,12426.8
2852820091,0.634769,2.223,91.6622,0.235464,-0.306957,0.860082,-0.528807,-1.13653,-0.0675048,2.64014,1.88461,0.709323,2.8,2.7,0,12592,49.717,24.995,12426.8
2852920442,0.634769,2.223,91.6374,0.286356,-0.378326,0.839024,-0.49505,-0.699138,-0.097254,3.48485,2.36666,2.31111,2.8,2.7,0,12592,49.696,26.632,13235
2853020813,0.634769,2.223,91.6069,0.302174,-0.401915,0.829974,-0.440424,-0.163317,-0.105428,4.0104,2.65225,2.89339,2.8,2.7,0,12592,49.696,26.632,13235
2853121139,0.634769,2.223,91.5847,0.300892,-0.397817,0.829255,-0.386724,0.406756,-0.077662,4.08015,2.71092,3.1564,2.8,2.7,0,12592,49.696,26.632,13235
2853221491,0.634769,2.223,91.5587,0.29632,-0.384188,0.832143,-0.331297,0.959715,-0.0636707,4.02207,2.64772,2.83089,2.8,2.7,0,12592,49.696,26.632,13235
2853321916,0.634769,2.223,91.5374,0.29432,-0.369694,0.835521,-0.288509,1.49217,-0.0436132,3.78639,2.57508,2.7792,2.8,2.7,0,12592,49.696,26.632,13235
2853422340,0.634769,2.223,91.5519,0.288618,-0.349518,0.840632,-0.257877,2.00331,-0.0221381,3.54804,2.58214,2.32889,2,-0.9,0,12592,49.696,26.632,13235
2853522739,0.634769,2.223,91.5723,0.240799,-0.300668,0.856407,-0.237398,2.49119,0.000669084,3.29939,2.48835,1.89047,2,-0.9,0,12592,49.696,26.632,13235
2853623058,0.634769,2.223,91.5819,0.00881356,-0.216847,0.902567,-0.209893,2.90842,0.0904051,2.74537,1.84387,1.6935,2,-0.9,0,12592,49.696,26.632,13235
2853723478,0.634769,2.223,91.6023,-0.254302,-0.0905788,0.91188,-0.0231767,3.01867,0.143195,1.5091,-1.35273,0.0931558,2,-0.9,0,12592,49.696,26.632,13235
2853823810,0.634769,2.223,91.6385,-0.387566,-0.0223277,0.900343,0.251327,2.86924,0.0558959,0.25839,-3.39132,0.207957,2,-0.9,0,12592,49.696,26.632,13235
2853924196,0.634769,2.223,91.6663,-0.43078,0.0182319,0.887612,0.577599,2.60333,0.0111117,-0.32054,-4.19904,1.46581,2,-0.9,0,12547,49.547,27.923,13835
2854024555,0.634769,2.223,91.7064,-0.394176,0.0367567,0.880278,0.901272,2.30076,0.00181406,-0.49164,-4.15501,1.30131,2,-0.9,0,12547,49.547,27.923,13835
2854124917,0.634769,2.223,91.7416,-0.325768,0.0422885,0.878761,1.15468,2.01848,-0.0295152,-0.741101,-3.64782,0.754035,2,-0.9,0,12547,49.547,27.923,13835
2854225280,0.634769,2.223,91.7489,-0.256389,0.0374257,0.881013,1.34734,1.78719,-0.0481373,-0.643472,-2.8305,0.50744,2,-0.9,0,12547,49.547,27.923,13835
2854325630,0.634769,2.223,91.751,-0.203775,0.0256719,0.884969,1.49156,1.59481,-0.050719,-0.620449,-2.16961,0.559516,2,-0.9,0,12547,49.547,27.923,13835
2854426016,0.634769,2.223,91.7724,-0.162164,0.00979123,0.889779,1.61257,1.4389,-0.0437429,-0.479344,-1.79594,-0.129133,-1.1,1.2,0,12547,49.547,27.923,13835
2854526380,0.634769,2.223,91.7853,-0.119978,0.00699671,0.894069,1.72368,1.3021,-0.0623669,-0.185567,-1.25294,0.244954,-1.1,1.2,0,12547,49.547,27.923,13835
2854626703,0.634769,2.223,91.7691,0.0157261,0.155444,0.900427,1.75963,1.20682,-0.0112788,-0.867203,-0.37871,0.217053,-1.1,1.2,0,12547,49.547,27.923,13835
2854727076,0.634769,2.223,91.7604,0.149231,0.278746,0.919387,1.53133,1.05306,-0.0732657,-2.71928,1.15898,-0.0831044,-1.1,1.2,0,12547,49.547,27.923,13835
2854827369,0.634769,2.223,91.7634,0.229473,0.354018,0.938342,1.16797,0.897979,-0.117427,-3.30318,1.97855,1.41942,-1.1,1.2,0,12547,49.547,27.923,13835
2854927743,0.634769,2.223,91.7588,0.262283,0.385368,0.948108,0.708055,0.724432,-0.132585,-3.76527,2.38171,2.18732,-1.1,1.2,0,12547,49.508,28.57,14144.4
2855028117,0.634769,2.223,91.7623,0.256622,0.376984,0.946105,0.212116,0.536962,-0.124924,-3.96185,2.45018,2.2255,-1.1,1.2,0,12547,49.508,28.57,14144.4
2855128465,0.634769,2.223,91.7617,0.21452,0.325076,0.932377,-0.244615,0.374144,-0.101804,-3.47223,2.15106,2.11962,-1.1,1.2,0,12547,49.508,28.57,14144.4
2855228826,0.634769,2.223,91.7408,0.169616,0.264482,0.91969,-0.606759,0.244519,-0.090174,-2.8418,1.78258,1.17672,-1.1,1.2,0,12547,49.508,28.57,14144.4
2855329193,0.634769,2.223,91.7214,0.126912,0.197332,0.908829,-0.877089,0.137911,-0.0757846,-2.19342,1.21364,0.805097,-1.1,1.2,0,12547,49.508,28.57,14144.4
2855429644,0.634769,2.223,91.7207,0.099195,0.147241,0.902668,-1.07271,0.0755865,-0.0721927,-1.50801,1.00969,0.274888,2.5,4.4,0,12547,49.508,28.57,14144.4
2855530055,0.634769,2.223,91.7164,0.0863307,0.0901953,0.90081,-1.23537,0.0198014,-0.0658683,-1.26451,0.732661,0.324101,2.5,4.4,0,12547,49.508,28.57,14144.4
2855630394,0.634769,2.223,91.7061,0.162694,-0.0932147,0.892872,-1.34593,0.0268836,-0.0355685,-0.0708506,0.927131,0.162308,2.5,4.4,0,12547,49.508,28.57,14144.4
2855730801,0.634769,2.223,91.6934,0.236964,-0.221105,0.870368,-1.39486,0.254055,-0.0993327,1.70488,1.79915,0.0801323,2.5,4.4,0,12547,49.508,28.57,14144.4
2855831204,0.634769,2.223,91.6779,0.287512,-0.293944,0.849868,-1.42185,0.63187,-0.123405,2.68875,2.2568,1.72649,2.5,4.4,0,12547,49.508,28.57,14144.4
2855931526,0.634769,2.223,91.6612,0.31402,-0.324082,0.837801,-1.43418,1.10193,-0.0933383,3.25474,2.57267,2.25862,2.5,4.4,0,12547,49.522,32.38,16035.2
2856031941,0.634769,2.223,91.6484,0.324503,-0.329516,0.834385,-1.44387,1.59607,-0.0797661,3.32621,2.67975,2.37599,2.5,4.4,0,12547,49.522,32.38,16035.2
2856132376,0.634769,2.223,91.6338,0.324756,-0.320076,0.836304,-1.46216,2.0869,-0.057154,3.19423,2.70419,2.33739,2.5,4.4,0,12547,49.522,32.38,16035.2
2856234318,0.634769,2.223,91.6168,0.32536,-0.302386,0.840084,-1.48485,2.55841,-0.0427982,3.02788,2.64194,2.16061,2.5,4.4,0,12547,49.522,32.38,16035.2
2856334657,0.634769,2.223,91.6013,0.316826,-0.27119,0.847279,-1.52144,2.99982,-0.0335784,2.73921,2.63741,2.03067,2.5,4.4,0,12547,49.522,32.38,16035.2
2856436175,0.634769,2.223,91.5999,0.281253,-0.22517,0.859787,-1.57566,3.40795,-0.0182897,2.29157,2.53056,1.72968,0.3,3.4,0,12547,49.522,32.38,16035.2
2856537533,0.634769,2.223,91.6019,0.226337,-0.148991,0.872271,-1.62094,3.74161,-0.0041026,1.93709,2.08372,1.31416,0.3,3.4,0,12547,49.522,32.38,16035.2
2856637899,0.634769,2.223,91.6072,0.100024,0.0811051,0.889801,-1.67488,3.96899,0.0961234,0.733791,1.38396,1.12001,0.3,3.4,0,12547,49.522,32.38,16035.2
2856738256,0.634769,2.223,91.6313,0.0140626,0.212363,0.892543,-1.80231,3.85891,0.110358,-2.03285,0.163357,-0.513965,0.3,3.4,0,12547,49.522,32.38,16035.2
2856838630,0.634769,2.223,91.6634,-0.0188149,0.254248,0.894049,-1.91537,3.66923,0.0351379,-2.44892,-0.419889,0.214546,0.3,3.4,0,12547,49.522,32.38,16035.2
2856939000,0.634769,2.223,91.6791,-0.0285244,0.247885,0.897034,-2.02363,3.44214,0.0147018,-2.5945,-0.649363,0.234994,0.3,3.4,0,12547,49.522,32.38,16035.2
2857040895,0.634769,2.223,91.7033,-0.0277541,0.218264,0.899578,-2.1222,3.21909,-0.0211781,-2.46067,-0.677699,-0.133431,0.3,3.4,0,12547,49.517,26.624,13183.4
2857143577,0.634769,2.223,91.7272,-0.0096669,0.178217,0.902242,-2.19906,3.03141,-0.0432964,-2.01473,-0.555723,-0.108551,0.3,3.4,0,12547,49.517,26.624,13183.4
2857248425,0.634769,2.223,91.7155,-0.0024599,0.143329,0.902313,-2.27511,2.88268,-0.0408486,-1.6377,-0.361351,-0.0357717,0.3,3.4,0,12547,49.517,26.624,13183.4
2857348745,0.634769,2.223,91.713,0.00461371,0.114227,0.901439,-2.34629,2.7417,-0.0714599,-1.16883,-0.252709,-0.00544897,0.3,3.4,0,12547,49.517,26.624,13183.4
2857449153,0.634769,2.223,91.7075,0.0162482,0.0886665,0.900453,-2.38383,2.64975,-0.0761723,-0.885878,-0.156075,-0.130451,-4.3,4.9,0,12547,49.517,26.624,13183.4
2857549471,0.634769,2.223,91.7037,0.0285121,0.0797544,0.90077,-2.41965,2.57142,-0.0838448,-0.568963,-0.124246,0.373323,-4.3,4.9,0,12547,49.517,26.624,13183.4
2857649831,0.634769,2.223,91.7017,0.0592274,0.182674,0.90296,-2.48071,2.49175,-0.0540242,-1.22404,0.116264,-0.229714,-4.3,4.9,0,12547,49.517,26.624,13183.4
2857751842,0.634769,2.223,91.6916,0.0886998,0.297968,0.911304,-2.65642,2.32241,-0.0955518,-2.44352,0.406167,0.487069,-4.3,4.9,0,12547,49.517,26.624,13183.4
2857853708,0.634769,2.223,91.6741,0.110269,0.36741,0.920996,-2.91869,2.07898,-0.0989214,-3.16985,0.590199,1.38627,-4.3,4.9,0,12547,49.517,26.624,13183.4
2857954479,0.634769,2.223,91.6619,0.127821,0.394427,0.927782,-3.22864,1.79903,-0.0910818,-3.68007,0.740384,1.62213,-4.3,4.9,0,12547,49.517,26.624,13183.4
2858054873,0.634769,2.223,91.6535,0.136187,0.396019,0.930943,-3.5535,1.52314,-0.0830529,-3.65202,0.84813,1.77196,-4.3,4.9,0,12547,49.517,27.553,13643.4
2858159969,0.634768,2.223,91.6406,0.143437,0.387778,0.930983,-3.8797,1.25313,-0.0635731,-3.5638,0.819146,1.98088,-4.3,4.9,0,12547,49.517,27.553,13643.4
2858260369,0.634768,2.223,91.6388,0.153219,0.376938,0.929778,-4.19715,1.00502,-0.0433513,-3.43927,0.926699,1.52317,-4.3,4.9,0,12547,49.517,27.553,13643.4
2858360700,0.634768,2.223,91.6398,0.169556,0.371327,0.930414,-4.51426,0.778383,-0.042901,-3.30836,1.04172,1.58139,-4.3,4.9,0,12547,49.517,27.553,13643.4
2858461118,0.634768,2.223,91.6428,0.183358,0.362745,0.929944,-4.834,0.560325,-0.0382012,-3.24145,1.05413,1.55098,4.2,3.1,0,12547,49.517,27.553,13643.4
2858561467,0.634768,2.223,91.6527,0.186363,0.331102,0.924379,-5.15322,0.361302,-0.0311055,-3.13991,1.17612,1.38556,4.2,3.1,0,12547,49.517,27.553,13643.4
2858661824,0.634768,2.223,91.6656,0.126391,0.0945107,0.903714,-5.46314,0.188787,0.0188226,-2.74409,1.17172,1.10582,4.2,3.1,0,12547,49.517,27.553,13643.4
2858762192,0.634768,2.223,91.6789,0.0403831,-0.208282,0.896182,-5.4896,0.235562,0.0835584,0.774501,0.439673,0.393743,4.2,3.1,0,12547,49.517,27.553,13643.4
2858862537,0.634768,2.223,91.6843,-0.013332,-0.373781,0.902091,-5.25808,0.46198,0.0267374,3.44299,-0.37416,0.241863,4.2,3.1,0,12547,49.517,27.553,13643.4
2858962909,0.634768,2.223,91.6807,-0.042555,-0.453051,0.909408,-4.90863,0.785057,-0.0263595,4.43867,-0.657854,1.9299,4.2,3.1,0,12547,49.517,27.553,13643.4
2859063275,0.634768,2.223,91.6723,-0.0601789,-0.47723,0.912838,-4.48372,1.15319,-0.0529834,4.88857,-0.830338,2.48092,4.2,3.1,0,12547,49.517,27.553,13643.4
2859163627,0.634768,2.223,91.6337,-0.0760704,-0.473624,0.911618,-4.04621,1.51846,-0.0805917,4.92231,-0.976834,2.4084,4.2,3.1,0,12547,49.517,27.553,13643.4
2859263994,0.634768,2.223,91.6029,-0.0847907,-0.467261,0.911564,-3.60777,1.86514,-0.0844027,4.73841,-1.08993,2.56983,4.2,3.1,0,12547,49.517,27.553,13643.4
2859364384,0.634768,2.223,91.5963,-0.0887194,-0.464158,0.909581,-3.1601,2.19776,-0.0857762,4.58354,-1.13732,2.62071,4.2,3.1,0,12547,49.517,27.553,13643.4
2859464781,0.634768,2.223,91.5969,-0.0806596,-0.454357,0.907192,-2.72383,2.52627,-0.0902039,4.47211,-1.16213,2.34259,-2.7,-3.7,0,12547,49.517,27.553,13643.4
2859565117,0.634768,2.223,91.6018,-0.0723369,-0.425941,0.902584,-2.30233,2.85186,-0.0695713,4.16027,-1.10168,2.36006,-2.7,-3.7,0,12502,49.653,28.099,13952
2859665495,0.634767,2.223,91.6114,-0.164061,-0.242679,0.910591,-1.87646,3.18297,0.0555486,3.86743,-0.900683,3.53552,-2.7,-3.7,0,12502,49.653,28.099,13952
2859766994,0.634767,2.223,91.6544,-0.30272,0.0410887,0.886919,-1.46506,3.13758,0.224885,0.589817,-2.86992,1.33701,-2.7,-3.7,0,12502,49.653,28.099,13952
2859870308,0.634767,2.223,91.6934,-0.382311,0.22425,0.84679,-1.2707,2.77943,0.152679,-2.14735,-4.0742,-0.293411,-2.7,-3.7,0,12502,49.653,28.099,13952
2859970683,0.634767,2.223,91.7283,-0.395487,0.285397,0.829591,-1.13252,2.38353,-0.0420216,-2.59039,-3.678,0.852196,-2.7,-3.7,0,12502,49.653,28.099,13952
2860070994,0.634767,2.223,91.7482,-0.392387,0.311219,0.821043,-1.00949,1.90162,-0.119487,-3.13432,-3.81155,1.61479,-2.7,-3.7,0,12502,49.653,28.099,13952
2860171354,0.634767,2.223,91.7444,-0.387363,0.317194,0.818394,-0.906524,1.38861,-0.158618,-3.11956,-3.59687,2.57642,-2.7,-3.7,0,12502,49.653,28.099,13952
2860271687,0.634767,2.223,91.7392,-0.384969,0.302635,0.823433,-0.800905,0.869756,-0.152922,-3.05953,-3.72976,2.2091,-2.7,-3.7,0,12502,49.653,28.099,13952
2860372042,0.634767,2.223,91.7133,-0.37814,0.281295,0.83079,-0.688657,0.362558,-0.162514,-2.82989,-3.5999,2.37447,-2.7,-3.7,0,12502,49.653,28.099,13952
2860472412,0.634767,2.223,91.6861,-0.36572,0.258477,0.83908,-0.563096,-0.13709,-0.148277,-2.64786,-3.58534,2.38319,-1.3653,-6.22378,0,12502,49.653,28.099,13952
2860572730,0.634767,2.223,91.6775,-0.335573,0.228965,0.849436,-0.43067,-0.618292,-0.104698,-2.43462,-3.49222,2.34421,-1.40748,-6.2411,0,12502,49.655,26.702,13258.9
2860673098,0.634767,2.223,91.6704,-0.20025,0.12746,0.879809,-0.316853,-1.03738,-0.0626073,-1.96477,-2.9797,1.36733,-1.55664,-6.2705,0,12502,49.655,26.702,13258.9
2860773434,0.634767,2.223,91.6513,-0.0618566,0.0277412,0.892896,-0.250419,-1.22252,-0.0492581,-0.693579,-1.42425,0.0564766,-1.59244,-6.26038,0,12502,49.655,26.702,13258.9
2860874170,0.634767,2.223,91.6183,0.0347655,-0.0440943,0.894564,-0.234797,-1.23982,-0.0587131,0.297487,-0.0415931,0.139999,-1.53919,-6.21068,0,12502,49.655,26.702,13258.9
2860974672,0.634767,2.223,91.6115,0.0857464,-0.0890901,0.893613,-0.244964,-1.14308,-0.0490514,0.85575,0.754772,0.293858,-1.45081,-6.14643,0,12502,49.655,26.702,13258.9
2861075435,0.634767,2.223,91.6075,0.0998588,-0.104349,0.893873,-0.257759,-0.998113,-0.0451165,1.14557,1.03709,0.344699,-1.39153,-6.09869,0,12502,49.655,26.702,13258.9
2861175839,0.634767,2.223,91.5955,0.0954695,-0.104708,0.895136,-0.265099,-0.84907,-0.0446385,1.18338,0.990089,0.275954,-1.3378,-6.06966,0,12502,49.655,26.702,13258.9
2861276248,0.634767,2.223,91.5784,0.0828603,-0.102478,0.896058,-0.281913,-0.7049,-0.0205781,1.07514,0.95985,0.555175,-1.29741,-6.04641,0,12502,49.655,26.702,13258.9
2861376638,0.634767,2.223,91.5783,0.0674879,-0.0962229,0.897052,-0.274006,-0.565075,-0.0117923,1.1533,0.730126,0.0849478,-1.27097,-6.04919,0,12502,49.655,26.702,13258.9
2861477069,0.634767,2.223,91.5789,0.0498956,-0.0849646,0.898019,-0.266144,-0.438523,-0.0137396,0.937521,0.550241,0.465679,-1.24968,-6.04867,0,12502,49.655,26.702,13258.9
2861577434,0.634767,2.223,91.5856,0.0298005,-0.0724041,0.899401,-0.253582,-0.333018,0.00550515,0.817005,0.442171,0.126281,-1.25164,-6.07298,0,12502,49.56,27.073,13417.4
2861677763,0.634767,2.223,91.5937,-0.107391,-0.0274241,0.902462,-0.234415,-0.237366,0.0421864,0.755369,0.238393,0.423152,-1.26163,-6.0909,0,12502,49.56,27.073,13417.4
2861778082,0.634767,2.223,91.6006,-0.257633,0.0234697,0.895831,-0.106327,-0.300315,0.0426432,0.156136,-1.7821,-0.254001,-1.22928,-6.1307,0,12502,49.56,27.073,13417.4
2861878404,0.634767,2.223,91.6055,-0.345774,0.0537166,0.887674,0.0881309,-0.483825,-0.00833155,-0.356864,-2.9712,0.435777,-1.17613,-6.1426,0,12502,49.56,27.073,13417.4
2861978770,0.634767,2.223,91.6253,-0.389698,0.0691437,0.881996,0.335964,-0.741195,-0.0160748,-0.492026,-3.51006,1.3007,-1.14652,-6.15188,0,12502,49.56,27.073,13417.4
2862079134,0.634767,2.223,91.6394,-0.401438,0.0757119,0.879733,0.598057,-1.02705,-0.0218214,-0.652599,-3.74982,1.32758,-1.12878,-6.13661,0,12502,49.56,27.073,13417.4
2862179503,0.634767,2.223,91.643,-0.40154,0.0786765,0.878476,0.861578,-1.3188,-0.0191086,-0.598477,-3.64909,1.62096,-1.1199,-6.10975,0,12502,49.56,27.073,13417.4
2862279874,0.634767,2.223,91.6441,-0.398982,0.0801468,0.877786,1.12301,-1.61462,-0.0163632,-0.666156,-3.71082,1.50228,-1.10652,-6.06298,0,12502,49.56,27.073,13417.4
2862380340,0.634767,2.223,91.6569,-0.396483,0.0801786,0.877719,1.376,-1.9132,-0.0130682,-0.730247,-3.62039,1.35863,-1.09473,-5.98813,0,12502,49.56,27.073,13417.4
2862480707,0.634767,2.223,91.6643,-0.391031,0.0797314,0.878057,1.62257,-2.20274,-0.0125701,-0.712621,-3.46096,1.42937,-1.08041,-5.90308,0,12502,49.56,27.073,13417.4
2862581077,0.634767,2.223,91.6565,-0.386151,0.0761188,0.87946,1.86688,-2.49026,-0.0201165,-0.71229,-3.46568,1.2153,-1.06729,-5.78534,0,12502,49.56,27.073,13417.4
2862681448,0.634768,2.223,91.6493,-0.381485,0.0710069,0.881534,2.11142,-2.76462,-0.0232799,-0.578615,-3.31395,1.29811,-1.05543,-5.66449,0,12457,49.518,27.767,13749.7
2862781806,0.634768,2.223,91.6429,-0.375926,0.0660625,0.883668,2.35625,-3.03246,-0.0271175,-0.514185,-3.34038,1.17839,-1.03873,-5.51423,0,12457,49.518,27.767,13749.7
2862882174,0.634768,2.223,91.6357,-0.36497,0.0627822,0.885552,2.59112,-3.28638,-0.022115,-0.503651,-3.09843,1.18112,-1.01637,-5.34287,0,12457,49.518,27.767,13749.7
2862982489,0.634768,2.223,91.6186,-0.313584,0.0516065,0.890043,2.81091,-3.53066,-0.0282427,-0.499779,-2.82224,1.32105,-1.00954,-5.18408,0,12457,49.518,27.767,13749.7
2863082866,0.634768,2.223,91.6042,-0.245473,0.0388324,0.89349,2.99754,-3.71128,-0.0134003,-0.180396,-2.1997,0.924551,-0.992672,-5.00805,0,12457,49.518,27.767,13749.7
2863183244,0.634768,2.223,91.605,-0.176797,0.0253468,0.896198,3.12375,-3.83492,0.00650118,-0.168801,-1.49442,0.502791,-0.969352,-4.81913,0,12457,49.518,27.767,13749.7
2863283608,0.634768,2.223,91.6136,-0.116592,0.0118087,0.897043,3.20614,-3.89725,0.017327,0.0175493,-0.87109,0.097252,-0.936513,-4.63251,0,12457,49.518,27.767,13749.7
2863383934,0.634768,2.223,91.6238,-0.0655713,0.00421353,0.896697,3.24893,-3.91321,0.0128889,0.164294,-0.289876,-0.163628,-0.898429,-4.44612,0,12457,49.518,27.767,13749.7
2863484416,0.634768,2.223,91.6293,-0.0180404,-0.000181174,0.896114,3.25343,-3.8793,0.00730351,0.267706,0.235051,0.0161828,-0.860071,-4.26055,0,12457,49.518,27.767,13749.7
2863584716,0.634768,2.223,91.628,0.0213666,-0.000622511,0.895881,3.22085,-3.82141,0.00368959,0.19305,0.702467,-0.0176632,-0.827435,-4.08752,0,12457,49.518,27.767,13749.7
2863685081,0.634768,2.223,91.6292,0.0455746,-0.00222887,0.89551,3.15281,-3.73366,-0.000184963,0.223876,1.06216,-0.231068,-0.793732,-3.91284,0,12457,49.452,28.073,13882.7
2863785454,0.634768,2.223,91.6304,0.0614265,-0.00435746,0.895014,3.06279,-3.63374,-0.0169623,0.156876,1.26768,0.0915131,-0.765462,-3.7608,0,12457,49.452,28.073,13882.7
2863885820,0.634768,2.223,91.6329,0.0705041,-0.00578622,0.894438,2.97461,-3.51286,-0.0220541,0.293815,1.40183,0.055646,-0.735016,-3.60335,0,12457,49.452,28.073,13882.7
2863986197,0.634768,2.223,91.6325,0.0716471,-0.00581315,0.8943,2.88133,-3.40283,-0.0318203,0.221323,1.32637,-0.22049,-0.711367,-3.47221,0,12457,49.452,28.073,13882.7
2864086551,0.634768,2.223,91.6361,0.0728088,-0.00562831,0.893835,2.76508,-3.2607,-0.0318303,0.241889,1.31281,0.000432439,-0.684461,-3.33234,0,12457,49.452,28.073,13882.7
2864186904,0.634768,2.223,91.6376,0.0702535,-0.00245008,0.894486,2.6659,-3.14437,-0.0284695,0.162697,1.27218,0.0363089,-0.667181,-3.22133,0,12457,49.452,28.073,13882.7
2864287251,0.634768,2.223,91.6386,0.0636148,0.000399651,0.894578,2.56721,-3.03342,-0.0191123,0.154706,1.22583,0.228442,-0.645496,-3.09963,0,12457,49.452,28.073,13882.7
2864387597,0.634768,2.223,91.6405,0.0552314,0.00291325,0.895156,2.47202,-2.9365,-0.0231552,0.11999,1.11112,-0.170576,-0.627832,-2.99829,0,12457,49.452,28.073,13882.7
2864487998,0.634768,2.223,91.6323,0.0515046,0.00336414,0.895295,2.38607,-2.84947,-0.0279092,0.113304,1.04585,0.0834149,-0.606694,-2.88695,0,12457,49.452,28.073,13882.7
2864588376,0.634768,2.223,91.6223,0.0478748,0.00454286,0.895177,2.3074,-2.76593,-0.0270721,0.0912539,0.965998,0.184248,-0.584792,-2.79194,0,12457,49.452,28.073,13882.7
2864688680,0.634768,2.223,91.6087,0.0449915,0.00406334,0.895243,2.22724,-2.6806,-0.0337141,0.143921,0.960516,0.353728,-0.562894,-2.68848,0,12457,49.431,28.066,13873.3
2864789036,0.634768,2.223,91.5877,0.0414461,0.00176805,0.895601,2.15185,-2.59969,-0.0346227,0.187807,0.848797,0.233409,-0.541704,-2.59226,0,12457,49.431,28.066,13873.3
2864891115,0.634768,2.223,91.5641,0.0367009,0.000819699,0.896084,2.0822,-2.51904,-0.0365866,0.203903,0.859406,0.267471,-0.520978,-2.49188,0,12457,49.431,28.066,13873.3
2864991580,0.634768,2.223,91.5567,0.0352696,-0.000189903,0.896258,2.02463,-2.44371,-0.0263727,0.205794,0.774997,0.238861,-0.500311,-2.39626,0,12457,49.431,28.066,13873.3
2865091921,0.634769,2.223,91.5419,0.0327294,-0.000209213,0.896504,1.96361,-2.3733,-0.0261048,0.128795,0.724375,0.308894,-0.480327,-2.29973,0,12457,49.431,28.066,13873.3
2865192301,0.634769,2.223,91.537,0.0335058,-0.00090039,0.896586,1.90656,-2.30307,-0.0102168,0.161903,0.800917,0.176274,-0.459767,-2.20628,0,12457,49.431,28.066,13873.3
2865293166,0.634769,2.223,91.5374,0.034064,-0.00316688,0.896096,1.85207,-2.23682,-0.00512245,0.185445,0.762249,-0.00872787,-0.438748,-2.11402,0,12457,49.431,28.066,13873.3
2865394474,0.634769,2.223,91.5373,0.037021,-0.00243932,0.895141,1.80229,-2.17229,0.00702086,0.167437,0.774185,0.0316847,-0.417995,-2.02163,0,12457,49.431,28.066,13873.3
2865494875,0.634769,2.223,91.5407,0.0411143,0.00124896,0.894903,1.74599,-2.09987,0.0061336,0.18446,0.832107,0.0715425,-0.398452,-1.92952,0,12457,49.431,28.066,13873.3
2865595177,0.634769,2.223,91.5491,0.041312,0.00316087,0.894777,1.68368,-2.03657,0.00584837,0.135619,0.803599,0.0160123,-0.379296,-1.83991,0,12457,49.431,28.066,13873.3
2865695585,0.634769,2.223,91.5543,0.0455806,0.00318452,0.89498,1.62796,-1.97883,0.00900834,0.109702,0.775518,-0.0221769,-0.361208,-1.75323,0,12457,49.525,25.851,12802.7
2865795953,0.634769,2.223,91.5514,0.0491971,0.00282264,0.895056,1.56351,-1.91907,0.00838431,0.0462306,0.826699,0.155186,-0.341981,-1.66967,0,12457,49.525,25.851,12802.7
2865896346,0.634769,2.223,91.5598,0.0514071,0.00044735,0.895215,1.49808,-1.85803,0.016773,0.0572115,0.869206,-0.0373619,-0.324096,-1.58988,0,12457,49.525,25.851,12802.7
2865996741,0.634769,2.223,91.5711,0.0525992,-0.00399626,0.895187,1.43333,-1.78992,0.0116441,0.135083,0.863457,-0.0320829,-0.303649,-1.51121,0,12457,49.525,25.851,12802.7
2866097098,0.634769,2.223,91.5765,0.0541922,-0.00805609,0.894894,1.37232,-1.71656,0.0181945,0.193691,0.916044,0.223124,-0.284725,-1.43697,0,12457,49.525,25.851,12802.7
2866198160,0.634769,2.223,91.5744,0.0512955,-0.0100842,0.894774,1.3126,-1.65072,0.012964,0.155739,0.910749,-0.0407617,-0.264839,-1.36428,0,12457,49.525,25.851,12802.7
2866301684,0.634769,2.223,91.578,0.0520466,-0.0107124,0.894805,1.26285,-1.58069,0.0143873,0.262113,0.844357,0.0791536,-0.247201,-1.29579,0,12457,49.525,25.851,12802.7
2866403244,0.634769,2.223,91.5821,0.0529536,-0.00964639,0.894944,1.20962,-1.50839,0.0129079,0.231456,0.900345,-0.0284832,-0.229507,-1.22913,0,12457,49.525,25.851,12802.7
2866503657,0.634769,2.223,91.5849,0.0511364,-0.0088213,0.894984,1.15314,-1.44151,0.00496548,0.173822,0.882183,-0.269893,-0.213626,-1.16642,0,12457,49.525,25.851,12802.7
2866604045,0.634769,2.223,91.5848,0.0539746,-0.00960716,0.895143,1.1086,-1.3775,0.0106368,0.223934,0.805736,0.0977709,-0.197427,-1.10886,0,12457,49.525,25.851,12802.7
2866704371,0.634769,2.223,91.5874,0.0539932,-0.010193,0.895178,1.06165,-1.31423,0.00767537,0.260563,0.83445,-0.0384006,-0.182705,-1.05349,0,12457,49.54,25.146,12457.3
2866804752,0.634769,2.223,91.5892,0.0528239,-0.0108449,0.895259,1.01216,-1.25696,0.00933745,0.138393,0.76657,-0.100676,-0.167117,-0.997299,0,12457,49.54,25.146,12457.3
2866905132,0.634769,2.223,91.5896,0.0510561,-0.0114925,0.895528,0.965958,-1.19819,0.00397034,0.205139,0.760458,0.153098,-0.153408,-0.944979,0,12457,49.54,25.146,12457.3
2867005487,0.634769,2.223,91.5879,0.0512606,-0.0105527,0.895682,0.928148,-1.14228,0.000253707,0.211948,0.717479,-0.0212821,-0.140641,-0.895934,0,12457,49.54,25.146,12457.3
2867105839,0.634769,2.223,91.588,0.0513771,-0.0095693,0.895579,0.878384,-1.08081,0.00114003,0.169555,0.712989,0.0301191,-0.128671,-0.849564,0,12457,49.54,25.146,12457.3
2867206192,0.634769,2.223,91.5886,0.0517211,-0.00950322,0.895675,0.830117,-1.02325,-1.15316e-05,0.193631,0.722483,0.0626127,-0.118632,-0.803694,0,12457,49.54,25.146,12457.3
2867306577,0.634769,2.223,91.5796,0.051665,-0.00986816,0.895825,0.794463,-0.980845,-0.00485965,0.202614,0.713602,-0.0884651,-0.108839,-0.761297,0,12457,49.54,25.146,12457.3
2867406930,0.634769,2.223,91.5748,0.0512604,-0.008717,0.895837,0.746741,-0.918189,0.00086751,0.157795,0.661883,0.342485,-0.0980869,-0.719644,0,12457,49.54,25.146,12457.3
2867507290,0.634769,2.223,91.5801,0.0496086,-0.00779355,0.895668,0.6992,-0.862818,0.00736732,0.162017,0.703362,0.0305307,-0.0882558,-0.681402,0,12457,49.54,25.146,12457.3
2867607669,0.634769,2.223,91.5765,0.0477128,-0.00807054,0.895656,0.664201,-0.810554,0.00073342,0.240135,0.642212,0.0699253,-0.0793832,-0.643737,0,12457,49.54,25.146,12457.3
2867708037,0.634769,2.223,91.5747,0.046999,-0.00761344,0.895648,0.617924,-0.756859,0.00989744,0.12617,0.702737,0.00507403,-0.0711689,-0.609415,0,12413,49.525,25.406,12582.3
2867808305,0.634769,2.223,91.5821,0.0442873,-0.00895738,0.895578,0.583034,-0.70958,0.0131112,0.196459,0.550576,-0.0694395,-0.0649478,-0.576691,0,12413,49.525,25.406,12582.3
2867908596,0.634769,2.223,91.5886,0.0415655,-0.00804266,0.89579,0.558905,-0.664709,0.00825883,0.183702,0.438164,-0.0405174,-0.0588219,-0.546971,0,12413,49.525,25.406,12582.3
2868008972,0.634769,2.223,91.591,0.0404732,-0.00677925,0.895726,0.526116,-0.622323,0.0135649,0.10261,0.497145,-0.0187766,-0.0534256,-0.517973,0,12413,49.525,25.406,12582.3
2868109340,0.634769,2.223,91.5884,0.0382423,-0.00582697,0.895742,0.487325,-0.579288,0.0045736,0.116609,0.574472,0.0343583,-0.0488953,-0.489817,0,12413,49.525,25.406,12582.3
2868209698,0.634769,2.223,91.5874,0.0352814,-0.00506743,0.895754,0.45312,-0.540589,0.0131272,0.0774799,0.550487,0.0143798,-0.0445777,-0.463804,0,12413,49.525,25.406,12582.3
2868310091,0.634769,2.223,91.5886,0.0337968,-0.00458764,0.895588,0.421393,-0.510651,0.00419778,0.0317923,0.49872,-0.105482,4.4,-4.1,0,12413,49.525,25.406,12582.3
2868410475,0.634769,2.223,91.5861,0.0307775,-0.00126857,0.89567,0.398912,-0.472294,0.00240254,0.215957,0.443168,-0.117881,4.4,-4.1,0,12413,49.525,25.406,12582.3
2868510817,0.634769,2.223,91.5827,0.0390983,0.000962422,0.895707,0.370865,-0.449,0.00291772,0.00544047,0.374354,0.227946,4.4,-4.1,0,12413,49.525,25.406,12582.3
2868611211,0.634769,2.223,91.5811,0.050804,-0.00138396,0.89581,0.331426,-0.407722,0.00998364,0.0442126,0.584718,-0.158554,4.4,-4.1,0,12413,49.525,25.406,12582.3
2868711542,0.634769,2.223,91.5775,0.0572583,-0.0034934,0.895788,0.283105,-0.367088,-0.00139611,0.00970464,0.630756,-0.021545,4.4,-4.1,0,12413,49.525,25.406,12582.3
2868811887,0.634769,2.223,91.568,0.0602582,-0.00676179,0.895593,0.236312,-0.311727,0.000420098,0.10701,0.723223,0.158672,4.4,-4.1,0,12413,49.53,25.444,12602.4
2868912307,0.634769,2.223,91.5542,0.059531,-0.0085403,0.895579,0.198329,-0.259345,0.00374212,0.157191,0.653238,0.102572,4.4,-4.1,0,12413,49.53,25.444,12602.4
2869012626,0.634769,2.223,91.5475,0.0559244,-0.00850918,0.895555,0.15641,-0.210851,-0.00303973,0.126942,0.590857,0.0676065,4.4,-4.1,0,12413,49.53,25.444,12602.4
2869114458,0.634769,2.223,91.5414,0.0539098,-0.00791394,0.895587,0.122248,-0.161085,0.00589468,0.166359,0.570587,0.144753,4.4,-4.1,0,12413,49.53,25.444,12602.4
2869214768,0.634769,2.223,91.5352,0.0488928,-0.00693716,0.89561,0.0867151,-0.114744,0.0080136,0.137218,0.545236,0.0623999,4.4,-4.1,0,12413,49.53,25.444,12602.4
2869315178,0.634769,2.223,91.5338,0.0425228,-0.00648999,0.895597,0.0557205,-0.0719495,0.0164592,0.135104,0.532493,-0.0695783,3.9,-2.7,0,12413,49.53,25.444,12602.4
2869415530,0.634769,2.223,91.5377,0.0280168,-0.0176592,0.89411,0.033081,-0.0357715,0.024428,0.131246,0.422215,-0.0200827,3.9,-2.7,0,12413,49.53,25.444,12602.4
2869515861,0.634769,2.223,91.5438,-0.0693289,-0.146075,0.899356,0.0248112,0.00212242,0.0765916,0.453752,0.151487,0.222293,3.9,-2.7,0,12413,49.53,25.444,12602.4
2869616155,0.634769,2.223,91.5503,-0.171069,-0.258937,0.918373,0.216821,0.0976301,0.0327279,2.10294,-1.07608,-0.0819219,3.9,-2.7,0,12413,49.53,25.444,12602.4
2869716401,0.634769,2.223,91.5512,-0.236039,-0.326791,0.934302,0.543374,0.214236,-0.00803412,2.81361,-1.76431,1.30722,3.9,-2.7,0,12413,49.53,25.444,12602.4
2869816773,0.634769,2.223,91.5505,-0.267417,-0.357511,0.94227,0.966877,0.349194,-0.0149777,3.31889,-2.18194,1.87658,3.9,-2.7,0,12413,49.526,25.362,12560.8
2869917117,0.634769,2.223,91.5478,-0.274482,-0.362892,0.942994,1.4363,0.486238,-0.0145477,3.46329,-2.41378,2.29876,3.9,-2.7,0,12413,49.526,25.362,12560.8
2870017411,0.634769,2.223,91.5267,-0.270204,-0.358722,0.940827,1.90051,0.620457,-0.00389857,3.44967,-2.42273,2.1472,3.9,-2.7,0,12413,49.526,25.362,12560.8
2870117741,0.634769,2.223,91.5092,-0.264726,-0.356208,0.939497,2.35038,0.752959,0.00737928,3.35991,-2.30592,2.11973,3.9,-2.7,0,12413,49.526,25.362,12560.8
2870218092,0.634769,2.223,91.5171,-0.248767,-0.342629,0.934711,2.77986,0.884534,0.0241583,3.3098,-2.13252,1.89298,3.9,-2.7,0,12413,49.526,25.362,12560.8
2870318491,0.634769,2.223,91.531,-0.211052,-0.300132,0.9241,3.18055,1.01237,0.0368202,2.98942,-1.94835,1.67333,3.9,-4.2,0,12413,49.526,25.362,12560.8
2870418839,0.634769,2.223,91.5413,-0.18493,-0.254022,0.917477,3.50596,1.10774,0.0491956,2.46856,-1.65925,1.00089,3.9,-4.2,0,12413,49.526,25.362,12560.8
2870519187,0.634769,2.223,91.5496,-0.241228,-0.204505,0.925461,3.76835,1.18879,0.0605718,1.98711,-1.59875,0.39532,3.9,-4.2,0,12413,49.526,25.362,12560.8
2870619545,0.634769,2.223,91.5581,-0.301019,-0.163611,0.922692,4.06134,1.17749,0.0230336,1.51721,-2.31642,0.551598,3.9,-4.2,0,12413,49.526,25.362,12560.8
2870719933,0.63477,2.223,91.5695,-0.316008,-0.128659,0.914732,4.37088,1.09726,0.0210178,1.04351,-2.63843,1.11081,3.9,-4.2,0,12413,49.526,25.362,12560.8
2870821031,0.63477,2.223,91.5846,-0.300049,-0.103846,0.906482,4.66301,0.988544,0.0249115,0.71854,-2.73112,0.773412,3.9,-4.2,0,12413,49.52,25.41,12583
2870922600,0.63477,2.223,91.6019,-0.262969,-0.0896235,0.901974,4.91131,0.875319,0.0298358,0.546409,-2.45694,0.559637,3.9,-4.2,0,12413,49.52,25.41,12583
2871023007,0.63477,2.223,91.6086,-0.222514,-0.0808515,0.899161,5.11002,0.774108,0.0274572,0.359542,-2.07053,0.365947,3.9,-4.2,0,12413,49.52,25.41,12583
2871123374,0.63477,2.223,91.6213,-0.186784,-0.0754136,0.898146,5.26142,0.694396,0.0213169,0.295691,-1.54046,0.322652,3.9,-4.2,0,12413,49.52,25.41,12583
2871223695,0.63477,2.223,91.6369,-0.157019,-0.0748122,0.897765,5.38368,0.630734,0.0176521,0.270042,-1.25115,0.081231,3.9,-4.2,0,12413,49.52,25.41,12583
2871324137,0.63477,2.223,91.6488,-0.133304,-0.073528,0.897587,5.47474,0.586532,0.00510765,0.220731,-0.951723,-0.0744979,-2.6,1.3,0,12413,49.52,25.41,12583
2871424526,0.63477,2.223,91.6528,-0.106747,-0.0575581,0.897569,5.54902,0.551886,-0.00619132,0.203904,-0.765604,0.30561,-2.6,1.3,0,12413,49.52,25.41,12583
2871524901,0.63477,2.223,91.6545,0.0372617,0.115995,0.898004,5.61418,0.527178,0.0616917,0.0441539,-0.506285,0.69519,-2.6,1.3,0,12413,49.52,25.41,12583
2871625279,0.63477,2.223,91.6662,0.191996,0.258867,0.920367,5.36534,0.43425,0.0716222,-2.39104,1.52787,0.107194,-2.6,1.3,0,12413,49.52,25.41,12583
2871725629,0.63477,2.223,91.6708,0.284612,0.332452,0.943593,4.95845,0.339018,-0.0296154,-3.15431,2.47145,1.30938,-2.6,1.3,0,12413,49.52,25.41,12583
2871825977,0.634771,2.223,91.6689,0.33439,0.368429,0.958446,4.30003,0.220184,-0.0652371,-3.7457,3.24957,2.49846,-2.6,1.3,0,12413,49.441,29.142,14408.1
2871926329,0.634771,2.223,91.6608,0.352438,0.384605,0.966903,3.70632,0.125819,-0.0938356,-3.8053,3.53529,2.78295,-2.6,1.3,0,12413,49.441,29.142,14408.1
2872026674,0.634771,2.223,91.64,0.350736,0.389663,0.969576,3.09964,0.0206623,-0.121257,-3.94368,3.53603,2.81959,-2.6,1.3,0,12413,49.441,29.142,14408.1
2872127054,0.634771,2.223,91.6198,0.327472,0.387877,0.968031,2.48543,-0.100271,-0.107085,-3.89694,3.32597,3.20724,-2.6,1.3,0,12413,49.441,29.142,14408.1
2872227420,0.634771,2.223,91.606,0.298631,0.378994,0.962133,1.8979,-0.234731,-0.0703899,-3.9241,3.11163,2.84853,-2.6,1.3,0,12413,49.441,29.142,14408.1
2872329713,0.634771,2.223,91.5985,0.281005,0.361767,0.953926,1.3407,-0.374672,-0.0374011,-3.71048,2.79947,2.74204,0.3,1.8,0,12413,49.441,29.142,14408.1
2872430505,0.634771,2.223,91.5929,0.282912,0.31472,0.944162,0.825652,-0.502424,-0.02015,-3.59782,2.68397,2.12285,0.3,1.8,0,12413,49.441,29.142,14408.1
2872530846,0.634771,2.223,91.5927,0.343613,0.127711,0.924133,0.334478,-0.568208,0.0405399,-2.66259,2.98055,1.81176,0.3,1.8,0,12413,49.441,29.142,14408.1
2872631202,0.634771,2.223,91.6048,0.375172,-0.0300941,0.895473,-0.0243661,-0.388323,0.0102347,-0.404437,3.63191,0.715436,0.3,1.8,0,12413,49.441,29.142,14408.1
2872731565,0.634771,2.223,91.6152,0.361062,-0.120353,0.872884,-0.304834,-0.0824483,-0.0326866,0.906248,3.59751,1.5362,0.3,1.8,0,12413,49.441,29.142,14408.1
2872831907,0.634771,2.223,91.6115,0.315534,-0.148481,0.865652,-0.519463,0.267892,-0.0157592,1.465,3.32086,1.44115,0.3,1.8,0,12413,49.416,28.189,13929.9
2872932370,0.634771,2.223,91.6077,0.25794,-0.139028,0.867531,-0.678058,0.58875,-0.00342663,1.5039,2.82882,1.06742,0.3,1.8,0,12413,49.416,28.189,13929.9
2873032728,0.634771,2.223,91.5945,0.20375,-0.117046,0.873105,-0.784185,0.844814,-0.00856062,1.3577,2.14936,0.691041,0.3,1.8,0,12413,49.416,28.189,13929.9
2873133047,0.634771,2.223,91.5803,0.158922,-0.0961655,0.878926,-0.855186,1.04415,-0.00480612,1.14595,1.59009,0.554394,0.3,1.8,0,12413,49.416,28.189,13929.9
2873233414,0.634771,2.223,91.5864,0.125213,-0.0735242,0.88441,-0.904683,1.20739,0.00606932,0.905471,1.26783,0.294436,0.3,1.8,0,12413,49.416,28.189,13929.9
2873333830,0.634771,2.223,91.6025,0.0996408,-0.0493875,0.888616,-0.943465,1.32946,0.0180165,0.63657,0.971089,-0.0613963,2.7,5,0,12413,49.416,28.189,13929.9
2873434214,0.63477,2.223,91.6083,0.0942339,-0.0499331,0.892185,-0.970573,1.41446,0.00540796,0.322584,0.635323,0.433491,2.7,5,0,12413,49.416,28.189,13929.9
2873534533,0.63477,2.223,91.6134,0.167499,-0.124276,0.884923,-0.997737,1.50734,0.00448947,0.65726,0.922184,-0.274082,2.7,5,0,12413,49.416,28.189,13929.9
2873634844,0.63477,2.223,91.6309,0.24885,-0.189457,0.869344,-1.03344,1.71951,-0.0464901,1.41934,1.73367,0.24097,2.7,5,0,12413,49.416,28.189,13929.9
2873735238,0.63477,2.223,91.6505,0.302795,-0.227296,0.854948,-1.0806,2.04385,-0.0465673,2.02732,2.32237,1.04328,2.7,5,0,12413,49.416,28.189,13929.9
2873835534,0.63477,2.223,91.653,0.329423,-0.236897,0.848727,-1.1439,2.4246,-0.042552,2.24008,2.66914,1.47332,2.7,5,0,12413,49.439,27.521,13606.1
2873935906,0.63477,2.223,91.6554,0.339388,-0.231056,0.84794,-1.21914,2.82276,-0.0369734,2.19255,2.85311,1.74422,2.7,5,0,12413,49.439,27.521,13606.1
2874036312,0.63477,2.223,91.6495,0.3466,-0.218951,0.849836,-1.30657,3.20637,-0.0221783,2.02246,2.81887,1.5599,2.7,5,0,12413,49.439,27.521,13606.1
2874136649,0.63477,2.223,91.6505,0.353591,-0.205984,0.852576,-1.40273,3.57185,-0.0273867,1.90441,2.82789,1.48856,2.7,5,0,12413,49.439,27.521,13606.1
2874236926,0.63477,2.223,91.6486,0.348813,-0.190011,0.85667,-1.5206,3.92936,-0.0288163,1.76332,2.91025,1.41105,2.7,5,0,12413,49.439,27.521,13606.1
2874338522,0.63477,2.223,91.6522,0.314586,-0.163954,0.864175,-1.63454,4.27138,-0.0241605,1.65786,2.78305,1.21943,5,0.1,0,12413,49.439,27.521,13606.1
2874443989,0.63477,2.223,91.6596,0.259307,-0.138267,0.874758,-1.73967,4.55514,-0.00616852,1.29248,2.3974,0.817354,5,0.1,0,12413,49.439,27.521,13606.1
2874544396,0.63477,2.223,91.6645,0.0302214,-0.148364,0.902484,-1.83309,4.80051,0.121593,0.969117,1.77635,1.61557,5,0.1,0,12413,49.439,27.521,13606.1
2874644736,0.63477,2.223,91.6862,-0.220807,-0.179224,0.923771,-1.6677,4.85444,0.161494,1.4177,-1.36715,-0.0658199,5,0.1,0,12413,49.439,27.521,13606.1
2874745084,0.63477,2.223,91.7224,-0.353794,-0.206743,0.933592,-1.33572,4.78869,0.0691646,1.61377,-3.28447,-0.125035,5,0.1,0,12413,49.439,27.521,13606.1
2874845432,0.63477,2.223,91.7178,-0.400396,-0.229962,0.938691,-0.912486,4.68497,-0.0288735,1.67079,-3.65906,1.86746,5,0.1,0,12413,49.439,27.521,13606.1
2874945776,0.63477,2.223,91.7115,-0.407815,-0.239775,0.936952,-0.424797,4.58334,-0.0491734,1.96386,-4.07739,1.77101,5,0.1,0,12413,49.363,28.687,14160.8
2875046137,0.63477,2.223,91.695,-0.400437,-0.245957,0.934832,0.0492423,4.47181,-0.101764,1.89677,-4.0047,1.88389,5,0.1,0,12413,49.363,28.687,14160.8
2875146489,0.63477,2.223,91.6694,-0.387059,-0.254369,0.931698,0.519971,4.37922,-0.127428,1.95325,-3.68353,2.23862,5,0.1,0,12413,49.363,28.687,14160.8
2875246849,0.63477,2.223,91.6585,-0.346061,-0.254319,0.926153,0.998897,4.28416,-0.114689,2.07585,-3.78366,1.87802,5,0.1,0,12413,49.363,28.687,14160.8
2875347246,0.63477,2.223,91.6511,-0.27717,-0.235712,0.916423,1.42231,4.21986,-0.102442,1.88403,-3.16659,1.52435,-1.6,-0.7,0,12413,49.363,28.687,14160.8
2875447607,0.63477,2.223,91.6457,-0.210054,-0.200666,0.908151,1.77262,4.18012,-0.0816408,1.64184,-2.44727,1.33403,-1.6,-0.7,0,12413,49.363,28.687,14160.8
2875547961,0.63477,2.223,91.6723,-0.145018,0.0237598,0.89612,2.09583,4.14729,0.0817184,0.882486,-1.6587,1.44417,-1.6,-0.7,0,12413,49.363,28.687,14160.8
2875650111,0.63477,2.223,91.7095,-0.106749,0.276307,0.883222,2.05988,3.87247,0.11721,-2.77861,-1.12978,-0.0042004,-1.6,-0.7,0,12413,49.363,28.687,14160.8
2875752549,0.63477,2.223,91.7477,-0.0938813,0.396098,0.874592,1.90796,3.52401,-0.0215984,-3.9404,-0.827644,0.359754,-1.6,-0.7,0,12413,49.363,28.687,14160.8
2875854419,0.634771,2.223,91.7739,-0.101667,0.446564,0.868701,1.6999,3.09847,-0.0578066,-4.43639,-0.75682,1.6159,-1.6,-0.7,0,12413,49.363,28.687,14160.8
2875954769,0.634771,2.223,91.7928,-0.118004,0.467043,0.866923,1.4873,2.6354,-0.114014,-4.64708,-1.01385,1.85791,-1.6,-0.7,0,12413,49.373,29.518,14573.9
2876055108,0.634771,2.223,91.8025,-0.136897,0.471548,0.864856,1.26972,2.15609,-0.154051,-4.67849,-1.05648,2.04638,-1.6,-0.7,0,12413,49.373,29.518,14573.9
2876155461,0.634771,2.223,91.7762,-0.137624,0.465353,0.864653,1.06528,1.6552,-0.163674,-4.64102,-1.26574,2.3033,-1.6,-0.7,0,12413,49.373,29.518,14573.9
2876255830,0.634771,2.223,91.7536,-0.120207,0.458073,0.86656,0.852088,1.1471,-0.143483,-4.47588,-1.22491,2.63965,-1.6,-0.7,0,12413,49.373,29.518,14573.9
2876356189,0.634771,2.223,91.7425,-0.102397,0.445958,0.870286,0.621546,0.670648,-0.139498,-4.44847,-1.00666,2.35925,4.5,2,0,12413,49.373,29.518,14573.9
2876456573,0.634771,2.223,91.7368,-0.0759365,0.39232,0.881908,0.376394,0.206816,-0.11631,-4.50379,-0.917536,2.20309,4.5,2,0,12413,49.373,29.518,14573.9
2876556930,0.634771,2.223,91.7336,0.0247558,0.131272,0.903584,0.151392,-0.188818,-0.0636294,-3.6453,-0.536358,1.14392,4.5,2,0,12413,49.373,29.518,14573.9
2876657885,0.634771,2.223,91.7306,0.134368,-0.173316,0.887578,0.051149,-0.212559,-0.0601539,-0.123894,0.80286,-0.076244,4.5,2,0,12413,49.373,29.518,14573.9
2876759325,0.634771,2.223,91.7237,0.19297,-0.345628,0.86407,0.0705471,0.0790182,-0.10711,2.65832,1.6178,0.674691,4.5,2,0,12413,49.373,29.518,14573.9
2876859690,0.634771,2.223,91.7039,0.222499,-0.429446,0.847269,0.146291,0.528584,-0.120977,3.72038,1.93205,2.31977,4.5,2,0,12413,49.373,29.518,14573.9
2876960052,0.634771,2.223,91.6632,0.22704,-0.456441,0.842485,0.265479,1.0548,-0.113637,4.19652,1.98737,2.90749,4.5,2,0,12369,49.445,26.259,12983.8
2877060401,0.634771,2.223,91.6231,0.22253,-0.458161,0.842818,0.399097,1.59367,-0.0941549,4.26864,1.93812,3.04855,4.5,2,0,12369,49.445,26.259,12983.8
2877160724,0.634771,2.223,91.6025,0.217412,-0.450183,0.84471,0.535725,2.13104,-0.0782234,4.28421,1.90477,2.86607,4.5,2,0,12369,49.445,26.259,12983.8
2877261076,0.634771,2.223,91.5873,0.209731,-0.436983,0.847689,0.66086,2.6431,-0.057293,3.89457,1.81083,2.80091,4.5,2,0,12369,49.445,26.259,12983.8
2877361466,0.634771,2.223,91.588,0.199492,-0.41693,0.852922,0.793727,3.13868,-0.0457929,3.943,1.74176,2.23064,3.4,-1.7,0,12369,49.445,26.259,12983.8
2877461817,0.634771,2.223,91.5889,0.157402,-0.361962,0.867986,0.912744,3.59973,-0.0299471,3.46999,1.59233,2.04557,3.4,-1.7,0,12369,49.445,26.259,12983.8
2877562167,0.634771,2.223,91.6099,-0.0474796,-0.24842,0.914122,1.02297,3.98755,0.0539461,2.89948,1.09114,1.9156,3.4,-1.7,0,12369,49.445,26.259,12983.8
2877662464,0.634771,2.223,91.64,-0.269718,-0.102955,0.919608,1.24485,4.07042,0.125603,1.32491,-1.70337,0.441288,3.4,-1.7,0,12369,49.445,26.259,12983.8
2877762811,0.634771,2.223,91.6674,-0.383252,-0.0348888,0.907877,1.50727,3.90639,0.0475588,0.0399667,-3.45329,0.116636,3.4,-1.7,0,12369,49.445,26.259,12983.8
2877863151,0.634771,2.223,91.6941,-0.430785,-0.00126618,0.899554,1.81724,3.65226,-0.000242458,-0.412558,-3.87913,1.53698,3.4,-1.7,0,12369,49.445,26.259,12983.8
2877963491,0.634771,2.223,91.7484,-0.424687,0.0191435,0.892365,2.13728,3.34619,-0.0126957,-0.701771,-4.22224,1.39671,3.4,-1.7,0,12369,49.498,25.273,12509.6
2878063859,0.634771,2.223,91.8028,-0.374848,0.0255464,0.889116,2.40837,3.03876,-0.030081,-0.895162,-3.86417,1.24896,3.4,-1.7,0,12369,49.498,25.273,12509.6
2878164246,0.634771,2.223,91.8009,-0.311344,0.0179742,0.890217,2.63648,2.76989,-0.0320629,-0.784736,-3.26645,0.86705,3.4,-1.7,0,12369,49.498,25.273,12509.6
2878264592,0.634771,2.223,91.7896,-0.25465,0.00700781,0.893306,2.80454,2.55013,-0.0448087,-0.682258,-2.58425,0.278886,3.4,-1.7,0,12369,49.498,25.273,12509.6
2878364980,0.634771,2.223,91.7818,-0.207752,-0.00889007,0.895983,2.94061,2.3774,-0.0786052,-0.547034,-2.11284,0.124503,-7.15594,-0.801232,0,12369,49.498,25.273,12509.6
2878465320,0.634771,2.223,91.7657,-0.15797,-0.0140162,0.896459,3.05989,2.23812,-0.0842292,-0.32614,-1.64172,0.455123,-7.28094,-0.734345,0,12369,49.498,25.273,12509.6
2878565690,0.634771,2.223,91.7371,-0.048302,0.0933285,0.892814,3.16155,2.13199,-0.0385275,-0.302041,-1.15166,0.361703,-7.37531,-0.700173,0,12369,49.498,25.273,12509.6
2878666038,0.634771,2.223,91.7064,0.0478378,0.195826,0.899894,3.00053,1.96111,-0.0811189,-2.19824,0.427836,-0.0665959,-7.3941,-0.579159,0,12369,49.498,25.273,12509.6
2878766389,0.634771,2.223,91.6856,0.107028,0.26096,0.908246,2.73997,1.79547,-0.110096,-2.88401,1.06497,1.02637,-7.38367,-0.442814,0,12369,49.498,25.273,12509.6
2878866786,0.634771,2.223,91.6729,0.134006,0.297514,0.913083,2.39844,1.61922,-0.101758,-3.28127,1.52183,1.33192,-7.40309,-0.3506,0,12369,49.498,25.273,12509.6
2878967135,0.634771,2.223,91.6737,0.139349,0.315921,0.914611,2.03998,1.43304,-0.100515,-3.45952,1.59589,1.28482,-7.42036,-0.298304,0,12369,49.282,30.148,14857.5
2879067517,0.634771,2.223,91.6784,0.129141,0.318924,0.91309,1.67758,1.2304,-0.0913126,-3.5454,1.44697,1.48672,-7.47327,-0.277493,0,12369,49.282,30.148,14857.5
2879167868,0.634771,2.223,91.6812,0.112417,0.302834,0.909947,1.33624,1.0346,-0.0734084,-3.3596,1.33559,1.24714,-7.53977,-0.289688,0,12369,49.282,30.148,14857.5
2879268296,0.634771,2.223,91.6867,0.0897503,0.273874,0.906475,1.02136,0.848425,-0.0681164,-3.08,1.14315,1.13544,-7.63402,-0.306418,0,12369,49.282,30.148,14857.5
2879368654,0.634771,2.223,91.6936,0.0677059,0.23715,0.903542,0.757395,0.678711,-0.0507585,-2.69736,0.851754,0.658573,-7.70966,-0.339344,0,12369,49.282,30.148,14857.5
2879469016,0.634771,2.223,91.6972,0.046609,0.200838,0.900573,0.536979,0.53781,-0.0529193,-2.23994,0.714637,0.541854,-7.78008,-0.36672,0,12369,49.282,30.148,14857.5
2879569377,0.634771,2.223,91.6898,0.0138354,0.256157,0.89733,0.36244,0.396886,-0.022714,-2.23507,0.282963,0.419795,-7.66765,-0.402793,0,12369,49.282,30.148,14857.5
2879669657,0.634771,2.223,91.6832,-0.00235236,0.324,0.895606,0.152127,0.179439,-0.0527678,-2.84383,0.190298,0.723623,-7.50588,-0.415397,0,12369,49.282,30.148,14857.5
2879769905,0.634771,2.223,91.6699,-0.013509,0.374626,0.894145,-0.0893464,-0.105058,-0.0673583,-3.45622,0.0163041,1.24951,-7.34643,-0.433365,0,12369,49.282,30.148,14857.5
2879870269,0.634771,2.223,91.6555,-0.0200504,0.401665,0.89294,-0.357621,-0.433774,-0.0685566,-3.79957,-0.0170697,1.68645,-7.23862,-0.445542,0,12369,49.282,30.148,14857.5
2879970611,0.634771,2.223,91.6476,-0.0246195,0.413658,0.891922,-0.627236,-0.77791,-0.0660984,-3.87565,-0.0703745,1.89976,-7.15514,-0.46289,0,12369,49.36,29.349,14486.7
2880070957,0.634771,2.223,91.6418,-0.0289735,0.414682,0.891363,-0.887327,-1.13169,-0.0657798,-3.9155,-0.197974,1.83625,-7.09779,-0.474001,0,12369,49.36,29.349,14486.7
2880171441,0.634771,2.223,91.6355,-0.0313407,0.411668,0.891171,-1.14661,-1.48526,-0.0555689,-3.9136,-0.179665,1.78548,-7.03681,-0.482263,0,12369,49.36,29.349,14486.7
2880271881,0.634771,2.223,91.6271,-0.0321212,0.404949,0.890845,-1.38822,-1.82988,-0.053178,-3.71905,-0.250446,1.75519,-6.97685,-0.489294,0,12369,49.36,29.349,14486.7
2880372329,0.634771,2.223,91.6169,-0.0330837,0.398954,0.890408,-1.62291,-2.17259,-0.0493693,-3.67249,-0.278505,1.70349,-6.89762,-0.490764,0,12369,49.36,29.349,14486.7
2880472645,0.634771,2.223,91.6094,-0.0315182,0.393431,0.890124,-1.85437,-2.50472,-0.0382324,-3.6023,-0.219362,1.6176,-6.80652,-0.491057,0,12369,49.36,29.349,14486.7
2880572938,0.634771,2.223,91.6012,-0.0298052,0.388578,0.890141,-2.0755,-2.82437,-0.0407996,-3.48065,-0.190998,1.48884,-6.69935,-0.482101,0,12369,49.36,29.349,14486.7
2880673250,0.634771,2.223,91.5917,-0.0299015,0.380934,0.890401,-2.29043,-3.13812,-0.0335166,-3.38032,-0.188321,1.57487,-6.58885,-0.474209,0,12369,49.36,29.349,14486.7
2880773615,0.634771,2.223,91.5943,-0.0280767,0.372913,0.890829,-2.49784,-3.43271,-0.0266286,-3.17871,-0.146364,1.51594,-6.46221,-0.458169,0,12369,49.36,29.349,14486.7
2880873918,0.634771,2.223,91.5959,-0.0283326,0.367783,0.890607,-2.70093,-3.71644,-0.0193582,-3.22933,-0.137958,1.13954,-6.31814,-0.449359,0,12369,49.36,29.349,14486.7
2880974288,0.634771,2.223,91.5866,-0.0291187,0.362801,0.890339,-2.89552,-3.99159,-0.0153199,-3.11499,-0.156044,1.27697,-6.16383,-0.437034,0,12369,49.36,29.349,14486.7
2881074556,0.634771,2.223,91.5848,-0.0279737,0.346885,0.890621,-3.07465,-4.25093,-0.0116991,-3.03345,-0.184579,0.883384,-6.01378,-0.422246,0,12369,49.36,27.389,13519.2
2881174835,0.634771,2.223,91.5975,-0.0239993,0.295865,0.892276,-3.24075,-4.49409,0.00262846,-2.71012,-0.162606,0.975508,-5.9363,-0.407038,0,12369,49.36,27.389,13519.2
2881275150,0.634771,2.223,91.6099,-0.0181624,0.228706,0.894564,-3.36978,-4.6791,0.0323678,-2.08635,-0.0450204,0.629631,-5.84177,-0.387439,0,12369,49.36,27.389,13519.2
2881375555,0.634771,2.223,91.6258,-0.0153022,0.16388,0.895559,-3.44821,-4.79224,0.040085,-1.37091,-0.0507302,0.129915,-5.71922,-0.369491,0,12369,49.36,27.389,13519.2
2881475922,0.634771,2.223,91.6417,-0.0103825,0.103783,0.896336,-3.48486,-4.85543,0.0455174,-0.768853,-0.0136725,-0.0762574,-5.55547,-0.353286,0,12369,49.36,27.389,13519.2
2881576337,0.634771,2.223,91.6528,-0.00847148,0.0574115,0.896862,-3.48054,-4.85584,0.032255,-0.101389,0.0477825,-0.266732,-5.37595,-0.335406,0,12369,49.36,27.389,13519.2
2881676643,0.634771,2.223,91.6599,-0.00643567,0.0165543,0.897395,-3.46131,-4.83247,0.0226517,0.219123,0.018591,-0.117212,-5.1753,-0.318864,0,12369,49.36,27.389,13519.2
2881777057,0.634771,2.223,91.6674,-0.002617,-0.0142536,0.897679,-3.41278,-4.76555,0.013813,0.672798,0.0926242,-0.19373,-4.97909,-0.30276,0,12369,49.36,27.389,13519.2
2881877369,0.63477,2.223,91.6695,-0.00143639,-0.03018,0.897169,-3.34321,-4.67862,-0.00871326,1.06213,0.032188,-0.41894,-4.77453,-0.291823,0,12369,49.36,27.389,13519.2
2881977732,0.63477,2.223,91.6601,-0.00199876,-0.0483492,0.897275,-3.27792,-4.57659,-0.0173094,1.13901,0.14298,0.192834,-4.59702,-0.279438,0,12369,49.36,27.389,13519.2
2882078102,0.63477,2.223,91.6535,-0.00191753,-0.0588952,0.896849,-3.18936,-4.46005,-0.0264059,1.32009,0.0969718,-0.0186308,-4.41067,-0.26983,0,12369,49.36,27.389,13519.2
2882178465,0.63477,2.223,91.6361,-0.00454066,-0.0674068,0.896784,-3.1025,-4.33743,-0.0456044,1.36305,0.0722246,-0.0374324,-4.24988,-0.261991,0,12369,49.36,27.389,13519.2
2882278787,0.63477,2.223,91.6204,-0.00617014,-0.0743705,0.896758,-3.01326,-4.20467,-0.0444427,1.40023,0.144953,0.211314,-4.07914,-0.253025,0,12369,49.36,27.389,13519.2
2882379166,0.63477,2.223,91.6048,-0.00879474,-0.0778701,0.897147,-2.90441,-4.07684,-0.0359352,1.49231,-0.0856481,0.182651,-3.93516,-0.247228,0,12369,49.36,27.389,13519.2
2882479533,0.63477,2.223,91.589,-0.00993897,-0.0769875,0.897474,-2.80364,-3.95448,-0.0462618,1.40525,-0.0626833,0.259292,-3.78226,-0.239227,0,12369,49.36,27.389,13519.2
2882579845,0.63477,2.223,91.5776,-0.0125147,-0.0738505,0.897496,-2.7069,-3.83901,-0.0399846,1.33024,-0.111013,0.309662,-3.64928,-0.235496,0,12369,49.286,26.906,13260.9
2882680218,0.63477,2.223,91.571,-0.00866958,-0.0715271,0.898065,-2.60688,-3.72875,-0.0330598,1.28436,-0.105746,0.375723,-3.50754,-0.22707,0,12369,49.286,26.906,13260.9
2882780879,0.63477,2.223,91.5662,-0.00680767,-0.0725686,0.898234,-2.516,-3.61595,-0.0171848,1.29576,-0.0233971,0.369487,-3.37632,-0.221862,0,12369,49.286,26.906,13260.9
2882882768,0.63477,2.223,91.5611,-0.00454402,-0.0703442,0.898318,-2.42591,-3.50552,-0.0118463,1.30257,-0.0164236,0.152683,-3.24085,-0.214721,0,12369,49.286,26.906,13260.9
2882983128,0.63477,2.223,91.5589,-0.00340628,-0.0686062,0.898106,-2.34063,-3.39587,-0.00926061,1.29227,-0.0561841,0.190297,-3.11586,-0.209621,0,12369,49.286,26.906,13260.9
2883083491,0.63477,2.223,91.5621,-0.00156857,-0.0657124,0.898438,-2.25381,-3.29408,-0.00742187,1.19167,-0.0859096,0.246714,-2.98888,-0.201298,0,12369,49.286,26.906,13260.9
2883183831,0.63477,2.223,91.5686,-0.000755617,-0.0666838,0.898626,-2.1721,-3.18459,-0.00237601,1.23755,-0.00286039,0.258347,-2.87091,-0.195438,0,12369,49.286,26.906,13260.9
2883284234,0.63477,2.223,91.5753,-0.000768585,-0.0660539,0.898659,-2.09805,-3.08326,0.0214335,1.13831,-0.00251556,0.209213,-2.752,-0.1884,0,12369,49.286,26.906,13260.9
2883384635,0.63477,2.223,91.579,-0.00220506,-0.0670673,0.898674,-2.03223,-2.98221,0.0110555,1.16424,0.00248349,-0.114745,-2.63631,-0.18512,0,12369,49.286,26.906,13260.9
2883485015,0.63477,2.223,91.5812,-0.00158894,-0.0673289,0.89872,-1.96819,-2.88284,0.00984978,1.11972,-0.0169927,0.105103,-2.52214,-0.179703,0,12369,49.286,26.906,13260.9
2883585401,0.63477,2.223,91.5903,-0.00281478,-0.066907,0.898331,-1.899,-2.78434,0.0128322,1.14653,-0.0542699,-0.118349,-2.41018,-0.178248,0,12280,49.281,30.386,14974.5
2883685756,0.63477,2.223,91.5947,-0.00506424,-0.0698175,0.898075,-1.83707,-2.693,0.00697048,1.00766,0.00446443,0.0984611,-2.30011,-0.175582,0,12280,49.281,30.386,14974.5
2883786148,0.63477,2.223,91.5884,-0.00556498,-0.0717471,0.898338,-1.76051,-2.58901,0.0108286,1.03055,-0.0562318,0.0977832,-2.19311,-0.169808,0,12280,49.281,30.386,14974.5
2883886478,0.63477,2.223,91.5763,-0.00660647,-0.0743227,0.89835,-1.68552,-2.49717,-0.0066047,1.08782,-0.0941731,0.103023,-2.08963,-0.164336,0,12280,49.281,30.386,14974.5
2883986872,0.63477,2.223,91.568,-0.00465387,-0.0774262,0.898249,-1.60931,-2.40693,-0.00234263,1.1336,-0.102564,0.0939743,-1.99087,-0.161029,0,12280,49.281,30.386,14974.5
2884087236,0.63477,2.223,91.5624,-0.00251437,-0.0760257,0.897953,-1.5278,-2.3142,-0.00300576,1.14936,-0.137393,0.106178,-1.89669,-0.156216,0,12280,49.281,30.386,14974.5
2884187611,0.63477,2.223,91.5598,-0.00205691,-0.074703,0.897776,-1.45927,-2.22464,0.000834594,1.06385,-0.0816138,0.203646,-1.8095,-0.150347,0,12280,49.281,30.386,14974.5
2884287947,0.63477,2.223,91.5602,0.00210935,-0.0709982,0.897797,-1.38614,-2.13683,0.00726487,1.04299,-0.0217442,0.315347,-1.72526,-0.143406,0,12280,49.281,30.386,14974.5
2884388408,0.63477,2.223,91.5662,0.00485765,-0.0688256,0.897495,-1.32684,-2.05352,0.00891751,1.0025,0.0474518,0.0750631,-1.64317,-0.138435,0,12280,49.281,30.386,14974.5
2884488775,0.63477,2.223,91.5724,0.00797844,-0.0706011,0.897588,-1.26873,-1.96373,0.0083913,1.01634,0.0556541,-0.0155344,-1.56407,-0.131863,0,12280,49.281,30.386,14974.5
2884589125,0.63477,2.223,91.5707,0.00972008,-0.0704809,0.897589,-1.21371,-1.87947,-0.00165434,0.982475,0.0563542,-0.0239723,-1.49218,-0.126717,0,12280,49.301,29.845,14713.9
2884689481,0.63477,2.223,91.5642,0.0112106,-0.0711242,0.897537,-1.16302,-1.79296,-0.00877746,0.950051,0.12711,0.192667,-1.42229,-0.120978,0,12280,49.301,29.845,14713.9
2884789832,0.63477,2.223,91.5613,0.0114098,-0.0707433,0.897623,-1.11078,-1.70007,0.00159386,0.970489,0.103812,0.0448079,-1.35352,-0.116276,0,12280,49.301,29.845,14713.9
2884891462,0.63477,2.223,91.5633,0.0118433,-0.0671395,0.897464,-1.05685,-1.61289,-0.00145379,0.954173,0.119283,0.161133,-1.28872,-0.111507,0,12280,49.301,29.845,14713.9
2884991875,0.63477,2.223,91.5674,0.010746,-0.0645616,0.897482,-1.01098,-1.53418,0.00999515,0.849604,0.0587337,0.0579907,-1.22532,-0.10979,0,12280,49.301,29.845,14713.9
2885092295,0.634769,2.223,91.5697,0.00955576,-0.0617116,0.897194,-0.970488,-1.45311,0.00145497,0.858761,0.145569,-0.0341801,-1.1658,-0.107248,0,12280,49.301,29.845,14713.9
2885192629,0.634769,2.223,91.577,0.00737417,-0.0611151,0.897206,-0.930646,-1.38118,0.00976921,0.789626,0.092389,0.00638521,-1.10782,-0.105525,0,12280,49.301,29.845,14713.9
2885294306,0.634769,2.223,91.584,0.00451094,-0.060233,0.89727,-0.875152,-1.31347,0.0135613,0.879029,-0.0388373,-0.132642,-1.05355,-0.103041,0,12280,49.301,29.845,14713.9
2885394711,0.634769,2.223,91.5935,0.00548749,-0.0578812,0.897379,-0.832737,-1.24159,0.0092255,0.774404,0.0685516,-0.107589,-1.00183,-0.100973,0,12280,49.301,29.845,14713.9
2885495041,0.634769,2.223,91.5994,0.00652383,-0.0563141,0.897219,-0.784849,-1.17874,0.0106655,0.74985,-0.0140557,-0.0273445,-0.95345,-0.0987149,0,12280,49.301,29.845,14713.9
2885595401,0.634769,2.223,91.61,0.00733958,-0.05366,0.897503,-0.742149,-1.11563,0.014358,0.772063,0.0391026,-0.204987,-0.906431,-0.0970168,0,12280,49.301,29.845,14713.9
2885695767,0.634769,2.223,91.6218,0.00688894,-0.0517159,0.897735,-0.701921,-1.05334,0.0109539,0.731834,0.0123349,0.013064,-0.862737,-0.094754,0,12280,49.365,26.022,12845.8
2885796114,0.634769,2.223,91.6284,0.00531984,-0.0517242,0.897654,-0.66758,-0.997728,-0.000829421,0.667364,0.0225279,-0.233073,-0.821541,-0.0941294,0,12280,49.365,26.022,12845.8
2885896486,0.634769,2.223,91.6297,0.00545488,-0.0505106,0.897962,-0.631157,-0.939982,-0.00788347,0.717344,0.0210181,-0.0579212,-0.783033,-0.0924914,0,12280,49.365,26.022,12845.8
2885996794,0.634769,2.223,91.6247,0.00427944,-0.0485668,0.898154,-0.588216,-0.884464,-0.0109662,0.67714,-0.0297507,0.246928,-0.746638,-0.09304,0,12280,49.365,26.022,12845.8
2886097186,0.634769,2.223,91.6169,0.00403307,-0.0422826,0.898397,-0.556981,-0.826267,-0.0105912,0.642643,0.0594341,0.00701364,-0.713029,-0.0923729,0,12280,49.365,26.022,12845.8
2886197594,0.634769,2.223,91.5995,0.00491087,-0.0395568,0.898666,-0.531202,-0.780936,-0.01749,0.49787,0.0264394,0.148344,-0.682206,-0.093422,0,12280,49.365,26.022,12845.8
2886297956,0.634769,2.223,91.5811,0.00449425,-0.0375612,0.898818,-0.505802,-0.734759,-0.01392,0.489798,0.0686855,0.206053,-0.653248,-0.0944546,0,12280,49.365,26.022,12845.8
2886398389,0.634769,2.223,91.5679,0.00372701,-0.0371403,0.899148,-0.484207,-0.687684,-0.010949,0.537179,0.0455002,0.0799155,-0.625825,-0.0944734,0,12280,49.365,26.022,12845.8
2886498764,0.634769,2.223,91.5573,0.0048705,-0.0343231,0.899233,-0.456937,-0.645472,-0.00881906,0.521359,0.0193783,-0.0123461,-0.600116,-0.094841,0,12280,49.365,26.022,12845.8
2886599150,0.634769,2.223,91.5587,0.00411576,-0.0344386,0.89943,-0.440801,-0.610026,-0.00316502,0.388584,0.0290875,0.171905,-0.576501,-0.0965542,0,12280,49.365,26.022,12845.8
2886699499,0.634769,2.223,91.5643,0.00468692,-0.0337657,0.899906,-0.420681,-0.570678,-0.00262802,0.461055,0.0694719,0.0803624,-0.554034,-0.0974146,0,12280,49.408,25.121,12411.8
2886799861,0.634769,2.223,91.576,0.00324345,-0.0302377,0.899941,-0.412878,-0.52873,0.0132387,0.39379,0.150523,0.0717831,-0.530194,-0.101301,0,12280,49.408,25.121,12411.8
2886900259,0.634769,2.223,91.593,0.00121444,-0.0291896,0.900098,-0.393611,-0.497607,0.014141,0.435007,0.0472919,-0.378348,-0.508648,-0.10418,0,12280,49.408,25.121,12411.8
2887000570,0.634769,2.223,91.6028,0.000323259,-0.0268655,0.900393,-0.371177,-0.462245,0.00656283,0.45836,-0.0149108,-0.16366,-0.484727,-0.108507,0,12280,49.408,25.121,12411.8
2887100930,0.634769,2.223,91.6126,-0.00107523,-0.0250672,0.900353,-0.363135,-0.434541,0.00908063,0.282834,0.103443,-0.138212,-0.464134,-0.111862,0,12280,49.408,25.121,12411.8
2887201289,0.634769,2.223,91.6148,-0.00362974,-0.0251568,0.900541,-0.347417,-0.406313,0.00333904,0.344142,0.0169588,-0.137896,-0.445584,-0.116798,0,12280,49.408,25.121,12411.8
2887301624,0.634769,2.223,91.6139,-0.00683521,-0.0233198,0.900265,-0.325851,-0.378675,-0.0119658,0.355481,-0.0150914,0.0333049,-0.428665,-0.120913,0,12280,49.408,25.121,12411.8
2887402087,0.634769,2.223,91.6137,-0.0105343,-0.0199512,0.899798,-0.318281,-0.35327,-0.00113417,0.257397,0.0541965,-0.0994645,-0.412892,-0.126528,0,12280,49.408,25.121,12411.8
2887502390,0.634769,2.223,91.6063,-0.0138747,-0.0172001,0.899848,-0.299899,-0.334506,-0.0122442,0.251631,-0.0577065,0.136806,-0.398293,-0.130964,0,12280,49.408,25.121,12411.8
2887602751,0.634769,2.223,91.6033,-0.0169543,-0.0135269,0.899163,-0.282864,-0.324041,-0.0135516,0.170967,-0.10993,-0.132176,-0.383244,-0.13488,0,12280,49.408,25.121,12411.8
2887703104,0.634769,2.223,91.6042,-0.0137178,-0.0107329,0.898779,-0.269692,-0.311969,-0.0144062,0.154174,-0.016461,-0.0177492,-0.369476,-0.138074,0,12280,49.441,24.435,12080.9
2887803438,0.634769,2.223,91.6135,-0.0148734,-0.00745771,0.898354,-0.261423,-0.297592,-0.00674447,0.153408,0.0200175,-0.00718735,-0.353009,-0.142485,0,12280,49.441,24.435,12080.9
2887903789,0.634769,2.223,91.6171,-0.016089,-0.00610953,0.897593,-0.254194,-0.293967,-0.00808802,0.0732465,-0.0545755,-0.00400463,-0.338597,-0.14633,0,12280,49.441,24.435,12080.9
2888004140,0.634769,2.223,91.6265,-0.0168146,-0.00620469,0.89704,-0.240262,-0.290438,-0.0124204,0.107856,-0.10767,0.0423189,-0.322195,-0.150574,0,12280,49.441,24.435,12080.9
2888104576,0.634769,2.223,91.6339,-0.0167719,-0.00820648,0.896708,-0.240271,-0.291286,-0.00206339,0.0113931,-0.0410329,-0.162966,-1.8,0.8,0,12280,49.441,24.435,12080.9
2888204950,0.634769,2.223,91.6273,-0.0122323,-0.00992509,0.895981,-0.233667,-0.277914,-0.00940914,0.163679,-0.0609533,-0.0780919,-1.8,0.8,0,12280,49.441,24.435,12080.9
2888305269,0.634769,2.223,91.6157,0.0060329,-0.0222385,0.895703,-0.230915,-0.265033,-0.0109552,0.180133,0.0876643,0.108491,-1.8,0.8,0,12280,49.441,24.435,12080.9
2888405635,0.634769,2.223,91.6124,0.0109348,-0.0317568,0.895188,-0.237262,-0.220679,-0.014205,0.293007,0.251531,-0.0767195,-1.8,0.8,0,12280,49.441,24.435,12080.9
2888505982,0.634769,2.223,91.6083,0.0115002,-0.0393584,0.89484,-0.234766,-0.168231,-0.0163804,0.394195,0.267631,-0.107347,-1.8,0.8,0,12280,49.441,24.435,12080.9
2888606334,0.634769,2.223,91.6016,0.00841532,-0.0429498,0.894504,-0.229815,-0.104235,-0.010488,0.430557,0.229196,-0.0864494,-1.8,0.8,0,12280,49.441,24.435,12080.9
2888706680,0.634769,2.223,91.5928,0.00284814,-0.0451778,0.893951,-0.221618,-0.0507195,-0.0120602,0.461065,0.212811,0.203966,-1.8,0.8,0,12280,49.439,24.261,11994.4
2888807063,0.634769,2.223,91.5839,-0.00328066,-0.0452186,0.893654,-0.20006,0.00491397,-0.00960039,0.5454,0.135894,0.143157,-1.8,0.8,0,12280,49.439,24.261,11994.4
2888907383,0.634769,2.223,91.5746,-0.00683907,-0.0417239,0.893658,-0.178935,0.0476984,-0.00693702,0.362405,0.103024,0.112222,-1.8,0.8,0,12280,49.439,24.261,11994.4
2889007665,0.634769,2.223,91.563,-0.0129402,-0.039146,0.893244,-0.16033,0.0892647,-0.00774004,0.409673,0.078099,-0.0306795,-1.8,0.8,0,12280,49.439,24.261,11994.4
2889108098,0.634769,2.223,91.5493,-0.0171644,-0.0340641,0.892895,-0.130403,0.120484,0.00284473,0.390497,-0.0396468,0.268836,4.4,3.5,0,12280,49.439,24.261,11994.4
2889208468,0.634769,2.223,91.5397,-0.0206874,-0.0300127,0.893154,-0.111098,0.138922,-0.00156212,0.260226,-0.0462413,0.258937,4.4,3.5,0,12280,49.439,24.261,11994.4
2889308839,0.634769,2.223,91.5289,0.0542834,-0.116003,0.889443,-0.0860478,0.158878,0.0306406,0.444601,0.0502018,0.268143,4.4,3.5,0,12280,49.439,24.261,11994.4
2889409207,0.634769,2.223,91.5229,0.164677,-0.221607,0.873505,-0.0709297,0.354681,-0.00599618,1.68834,1.23996,0.138203,4.4,3.5,0,12280,49.439,24.261,11994.4
2889510977,0.634769,2.223,91.5187,0.236055,-0.290699,0.858287,-0.0691022,0.693143,-0.0302224,2.49099,1.99346,1.28367,4.4,3.5,0,12280,49.439,24.261,11994.4
2889613076,0.634769,2.223,91.5086,0.271966,-0.326343,0.848642,-0.0680478,1.11651,-0.0157294,2.97627,2.45844,1.72297,4.4,3.5,0,12280,49.439,24.261,11994.4
2889714585,0.634769,2.223,91.4972,0.280455,-0.340727,0.845713,-0.0640599,1.5847,-0.0117311,3.17152,2.53086,2.17067,4.4,3.5,0,12280,49.381,25.15,12419.3
2889814976,0.634769,2.223,91.4766,0.276179,-0.343843,0.845747,-0.0583169,2.04942,0.000726741,3.14276,2.51262,2.15638,4.4,3.5,0,12280,49.381,25.15,12419.3
2889916721,0.634769,2.223,91.4643,0.26797,-0.343911,0.846136,-0.0403192,2.51424,0.0221323,3.14965,2.38966,2.25826,4.4,3.5,0,12280,49.381,25.15,12419.3
2890017079,0.634769,2.223,91.4583,0.260843,-0.340486,0.847456,-0.0162559,2.96505,0.0332467,3.14797,2.27497,1.97671,4.4,3.5,0,12280,49.381,25.15,12419.3
2890117475,0.634769,2.223,91.4524,0.253892,-0.335819,0.848859,0.00884006,3.39299,0.0370336,3.02226,2.13456,1.80085,-0.8,-5,0,12280,49.381,25.15,12419.3
2890217823,0.634769,2.223,91.4562,0.23714,-0.327716,0.851979,0.0260654,3.81234,0.0374252,2.9285,2.18189,1.46833,-0.8,-5,0,12280,49.381,25.15,12419.3
2890318167,0.634769,2.223,91.4652,0.0668752,-0.206316,0.892998,0.0706655,4.23736,0.0897101,2.91565,1.8155,2.05197,-0.8,-5,0,12280,49.381,25.15,12419.3
2890418482,0.634769,2.223,91.4812,-0.183404,0.00986413,0.896573,0.164722,4.35236,0.185563,0.935051,-0.474785,0.357662,-0.8,-5,0,12280,49.381,25.15,12419.3
2890518788,0.634769,2.223,91.5034,-0.336301,0.129987,0.871755,0.291966,4.10823,0.143817,-1.31692,-2.83944,0.0133306,-0.8,-5,0,12280,49.381,25.15,12419.3
2890619172,0.634769,2.223,91.5247,-0.405085,0.19101,0.851898,0.454153,3.73017,0.0842365,-2.00731,-3.5154,1.74,-0.8,-5,0,12280,49.381,25.15,12419.3
2890719529,0.634769,2.223,91.5476,-0.43066,0.225534,0.837425,0.629185,3.26045,0.0540639,-2.47484,-4.04193,1.95848,-0.8,-5,0,12280,49.381,25.15,12419.3
2890819909,0.634769,2.223,91.5919,-0.432322,0.243706,0.829844,0.787073,2.76585,0.0334103,-2.64987,-4.05677,2.02766,-0.8,-5,0,12280,49.346,26.268,12962.2
2890920324,0.634769,2.223,91.6388,-0.427145,0.24475,0.828856,0.928157,2.26434,0.00927933,-2.82096,-4.04175,1.73219,-0.8,-5,0,12280,49.346,26.268,12962.2
2891020694,0.634769,2.223,91.6401,-0.420751,0.236655,0.83125,1.06727,1.7555,-0.00899697,-2.69073,-3.77577,2.24319,-0.8,-5,0,12280,49.346,26.268,12962.2
2891121024,0.634769,2.223,91.638,-0.412877,0.220068,0.836832,1.21207,1.25826,-0.0214964,-2.5871,-3.8322,1.95584,3.3,5,0,12280,49.346,26.268,12962.2
2891221421,0.634769,2.223,91.6526,-0.398744,0.202135,0.842993,1.36796,0.782041,-0.0249981,-2.27644,-3.64378,2.12269,3.3,5,0,12280,49.346,26.268,12962.2
2891321764,0.634769,2.223,91.6545,-0.219922,0.121339,0.878139,1.52649,0.317708,0.00135254,-2.15888,-3.61046,1.54264,3.3,5,0,12280,49.346,26.268,12962.2
2891422167,0.634769,2.223,91.639,0.0865086,-0.0185811,0.893223,1.58068,0.121529,6.98343e-05,-0.84046,-1.02752,-0.101531,3.3,5,0,12280,49.346,26.268,12962.2
2891522522,0.634769,2.223,91.6129,0.310661,-0.11538,0.87608,1.46498,0.268431,-0.0258674,0.724694,2.2721,0.266612,3.3,5,0,12280,49.346,26.268,12962.2
2891622907,0.634769,2.223,91.5916,0.420462,-0.163621,0.85969,1.25348,0.606329,-0.0755991,1.35631,3.65767,1.72992,3.3,5,0,12280,49.346,26.268,12962.2
2891723268,0.634769,2.223,91.5643,0.466717,-0.181401,0.853236,0.970151,1.05898,-0.0822727,1.61858,4.44963,2.99589,3.3,5,0,12280,49.346,26.268,12962.2
2891823620,0.634769,2.223,91.5352,0.476088,-0.18452,0.852641,0.677141,1.55928,-0.068325,1.77356,4.63558,3.20566,3.3,5,0,12280,49.273,29.923,14744
2891923969,0.634769,2.223,91.5078,0.467867,-0.180518,0.855338,0.376144,2.05473,-0.0504544,1.65509,4.63028,3.14761,3.3,5,0,12280,49.273,29.923,14744
2892024365,0.634769,2.223,91.4839,0.451289,-0.176315,0.857709,0.0814502,2.53714,-0.0252556,1.61061,4.43294,2.87759,3.3,5,0,12280,49.273,29.923,14744
2892124758,0.634769,2.223,91.4642,0.431812,-0.173374,0.86038,-0.196465,2.99252,-0.00949973,1.50865,4.16743,2.70767,3.1,2.3,0,12280,49.273,29.923,14744
2892225118,0.634769,2.223,91.4495,0.399387,-0.174906,0.86393,-0.45291,3.42786,0.016966,1.4537,3.89333,2.27684,3.1,2.3,0,12280,49.273,29.923,14744
2892325486,0.634769,2.223,91.4428,0.211588,-0.182173,0.88479,-0.681666,3.83532,0.0620127,1.39196,3.37593,2.23155,3.1,2.3,0,12280,49.273,29.923,14744
2892425826,0.634769,2.223,91.4512,0.0373838,-0.171401,0.899397,-0.701278,4.07977,0.129094,1.57058,1.15677,0.372351,3.1,2.3,0,12280,49.273,29.923,14744
2892526191,0.634769,2.223,91.4696,-0.0652751,-0.15957,0.903279,-0.581613,4.20274,0.0923698,1.27709,-0.580095,-0.00885874,3.1,2.3,0,12280,49.273,29.923,14744
2892626535,0.634769,2.223,91.4879,-0.107554,-0.143772,0.903444,-0.431646,4.24039,0.0879509,1.09432,-1.15968,0.193193,3.1,2.3,0,12280,49.273,29.923,14744
2892726892,0.634769,2.223,91.5023,-0.108107,-0.124353,0.901337,-0.282582,4.262,0.0785151,0.938505,-1.24677,0.0342598,3.1,2.3,0,12280,49.273,29.923,14744
2892827218,0.634769,2.223,91.523,-0.089757,-0.104459,0.89928,-0.155882,4.27142,0.0628159,0.719567,-1.07485,-0.0569983,3.1,2.3,0,12280,49.165,29.587,14546.4
2892927564,0.634769,2.223,91.5382,-0.0674662,-0.084373,0.897356,-0.060979,4.27054,0.0522018,0.525515,-0.860124,-0.130794,3.1,2.3,0,12280,49.165,29.587,14546.4
2893027873,0.634769,2.223,91.5368,-0.0485826,-0.0683571,0.896732,0.0178119,4.26676,0.0537435,0.401015,-0.69066,-0.129679,3.1,2.3,0,12280,49.165,29.587,14546.4
2893128281,0.634769,2.223,91.5353,-0.0323396,-0.058342,0.896298,0.0647241,4.25034,0.0488347,0.0923536,-0.51478,0.0109735,2.9,-0.9,0,12280,49.165,29.587,14546.4
2893228656,0.634769,2.223,91.5404,-0.0333218,-0.0516345,0.897964,0.106824,4.24361,0.0459149,0.165217,-0.261318,-0.0168405,2.9,-0.9,0,12280,49.165,29.587,14546.4
2893329001,0.634769,2.223,91.5532,-0.179449,-0.0301696,0.900944,0.169031,4.21326,0.0715152,0.101619,-0.965539,0.245715,2.9,-0.9,0,12280,49.165,29.587,14546.4
2893429360,0.634769,2.223,91.5539,-0.326974,-0.0132481,0.897626,0.360373,4.02915,0.0397162,-0.277691,-2.75904,0.344354,2.9,-0.9,0,12280,49.165,29.587,14546.4
2893529709,0.634769,2.223,91.5481,-0.413991,-0.00842756,0.895124,0.6497,3.76291,0.0083702,-0.259436,-3.6418,1.51054,2.9,-0.9,0,12280,49.165,29.587,14546.4
2893630061,0.634769,2.223,91.546,-0.44971,-0.00695476,0.892796,0.994247,3.43952,0.00102285,-0.361312,-4.23173,1.84418,2.9,-0.9,0,12280,49.165,29.587,14546.4
2893730408,0.634769,2.223,91.5455,-0.414746,-0.00734337,0.890098,1.35101,3.10451,0.00775569,-0.300208,-4.12053,2.13577,2.9,-0.9,0,12280,49.165,29.587,14546.4
2893830754,0.634769,2.223,91.5403,-0.348179,-0.00822251,0.88857,1.66078,2.80133,0.019686,-0.350288,-3.79213,1.4567,2.9,-0.9,0,12280,49.117,33.716,16560.3
2893931090,0.634769,2.223,91.5377,-0.279318,-0.0166225,0.890839,1.89966,2.55882,0.0345911,-0.323973,-3.01009,0.939173,2.9,-0.9,0,12280,49.117,33.716,16560.3
2894031419,0.634769,2.223,91.5442,-0.217032,-0.0268082,0.89332,2.07596,2.37871,0.0313613,-0.217055,-2.23769,0.329561,2.9,-0.9,0,12280,49.117,33.716,16560.3
2894131848,0.63477,2.223,91.5469,-0.168021,-0.037454,0.895545,2.22299,2.24512,0.0307743,-0.0764237,-1.69824,0.481607,3.2,1.8,0,12280,49.117,33.716,16560.3
2894232196,0.63477,2.223,91.5496,-0.104618,-0.0466751,0.893675,2.33787,2.14492,0.0317745,-0.0383409,-1.35867,0.36269,3.2,1.8,0,12280,49.117,33.716,16560.3
2894332479,0.63477,2.223,91.5534,0.125347,-0.065999,0.886589,2.40724,2.10318,0.0751172,0.172529,-0.202441,0.23352,3.2,1.8,0,12280,49.117,33.716,16560.3
2894432782,0.63477,2.223,91.5519,0.309985,-0.0789869,0.882202,2.26434,2.26192,0.0239628,0.370022,2.64695,-0.493968,3.2,1.8,0,12280,49.117,33.716,16560.3
2894533150,0.63477,2.223,91.5457,0.376764,-0.0862414,0.880331,2.01423,2.51853,-0.0463032,0.41377,3.4604,1.51259,3.2,1.8,0,12280,49.117,33.716,16560.3
2894633477,0.63477,2.223,91.5393,0.362478,-0.084423,0.882301,1.71689,2.83403,-0.023973,0.475836,3.92215,1.80293,3.2,1.8,0,12280,49.117,33.716,16560.3
2894734265,0.63477,2.223,91.5393,0.301527,-0.0772005,0.885421,1.44645,3.11464,0.00071583,0.409032,3.529,1.32263,3.2,1.8,0,12280,49.117,33.716,16560.3
2894834679,0.63477,2.223,91.5217,0.227979,-0.0716454,0.888303,1.23766,3.32629,0.00534687,0.289553,2.6859,0.930096,3.2,1.8,0,12192,49.121,27.85,13680.2
2894935814,0.63477,2.223,91.5002,0.171841,-0.0664242,0.890488,1.07894,3.49315,0.0281501,0.25454,2.05124,0.641875,3.2,1.8,0,12192,49.121,27.85,13680.2
2895040494,0.63477,2.223,91.5053,0.125087,-0.0642633,0.891626,0.958084,3.62243,0.0407133,0.250228,1.48712,0.405845,3.2,1.8,0,12192,49.121,27.85,13680.2
2895140905,0.63477,2.223,91.5102,0.0886707,-0.058015,0.89302,0.881493,3.72896,0.0431377,0.338863,1.08197,0.127014,-5.47009,-2.58274,0,12192,49.121,27.85,13680.2
2895241234,0.63477,2.223,91.5076,0.0556465,-0.045997,0.894026,0.819921,3.80413,0.0353384,0.161678,0.682303,0.0528757,-5.60282,-2.67767,0,12192,49.121,27.85,13680.2
2895341609,0.63477,2.223,91.4988,-0.0323042,0.0683772,0.89488,0.777296,3.8584,0.0671731,-0.0684825,0.31407,0.354975,-5.72232,-2.75122,0,12192,49.121,27.85,13680.2
2895441967,0.63477,2.223,91.5148,-0.10821,0.169266,0.886989,0.723971,3.71576,0.0726244,-1.59375,-0.720483,0.0297856,-5.75531,-2.86514,0,12192,49.121,27.85,13680.2
2895542312,0.63477,2.223,91.5329,-0.154801,0.240017,0.877222,0.670229,3.46849,0.0516585,-2.37604,-1.29109,0.413911,-5.75999,-2.96364,0,12192,49.121,27.85,13680.2
2895642675,0.63477,2.223,91.5314,-0.174837,0.281365,0.870513,0.607623,3.14157,0.0416639,-2.80797,-1.60408,0.98865,-5.78375,-3.05446,0,12192,49.121,27.85,13680.2
2895743033,0.63477,2.223,91.5321,-0.181773,0.301072,0.866819,0.53123,2.78829,0.0352316,-3.10437,-1.68997,0.865699,-5.83546,-3.12855,0,12192,49.121,27.85,13680.2
2895843371,0.63477,2.223,91.5524,-0.179446,0.303675,0.867063,0.455435,2.4197,0.0101249,-3.24758,-1.71514,1.04067,-5.9078,-3.18214,0,12192,49.205,26.942,13256.8
2895943736,0.63477,2.223,91.5758,-0.170909,0.290442,0.869829,0.381669,2.0518,0.0149599,-3.14682,-1.62235,1.12328,-6.01111,-3.22911,0,12192,49.205,26.942,13256.8
2896044100,0.63477,2.223,91.584,-0.158211,0.265943,0.87413,0.31132,1.69974,0.017408,-2.89516,-1.53665,1.1208,-6.11322,-3.25503,0,12192,49.205,26.942,13256.8
2896144474,0.63477,2.223,91.5859,-0.14119,0.232684,0.879259,0.254531,1.38326,0.0140479,-2.56746,-1.40978,0.807081,-6.22568,-3.28022,0,12192,49.205,26.942,13256.8
2896244843,0.63477,2.223,91.5839,-0.123105,0.200326,0.883067,0.21014,1.10649,0.0185852,-2.19639,-1.26109,0.621884,-6.3011,-3.28376,0,12192,49.205,26.942,13256.8
2896345209,0.63477,2.223,91.5758,-0.140447,0.237894,0.879046,0.171881,0.871905,0.0397329,-1.97443,-1.0659,0.498026,-6.25618,-3.28263,0,12192,49.205,26.942,13256.8
2896445579,0.63477,2.223,91.5619,-0.166461,0.285182,0.873673,0.121572,0.57558,-0.00414029,-2.5049,-1.31427,0.649097,-6.1555,-3.26183,0,12192,49.205,26.942,13256.8
2896545907,0.63477,2.223,91.5508,-0.18445,0.32089,0.868066,0.0575322,0.226863,-0.0232786,-2.82999,-1.4265,1.32003,-6.06349,-3.25098,0,12192,49.205,26.942,13256.8
2896646257,0.63477,2.223,91.5367,-0.190601,0.339046,0.865099,-0.0179417,-0.170471,-0.0203506,-3.15064,-1.53909,1.70871,-5.99443,-3.22594,0,12192,49.205,26.942,13256.8
2896746656,0.63477,2.223,91.5227,-0.191802,0.34608,0.864719,-0.0955101,-0.580283,-0.012639,-3.32306,-1.63466,1.53479,-5.95033,-3.19889,0,12192,49.205,26.942,13256.8
2896847015,0.63477,2.223,91.5177,-0.190461,0.347532,0.864975,-0.177191,-0.983626,-0.0034282,-3.22042,-1.51283,1.79059,-5.90939,-3.16911,0,12192,49.22,27.454,13512.9
2896947357,0.63477,2.223,91.5153,-0.190044,0.345257,0.865272,-0.260914,-1.38649,0.0120603,-3.25387,-1.54861,1.66673,-5.86075,-3.12944,0,12192,49.22,27.454,13512.9
2897047709,0.63477,2.223,91.5104,-0.188747,0.342674,0.865785,-0.342449,-1.77418,0.0162741,-3.23344,-1.5283,1.37628,-5.80581,-3.08884,0,12192,49.22,27.454,13512.9
2897148145,0.63477,2.223,91.5081,-0.184796,0.339625,0.866731,-0.419288,-2.15229,0.0207899,-3.0641,-1.54026,1.58446,-5.73879,-3.03603,0,12192,49.22,27.454,13512.9
2897248509,0.63477,2.223,91.51,-0.183018,0.338553,0.867337,-0.51158,-2.58478,0.0190987,-3.06383,-1.45814,1.27392,-5.6593,-2.98245,0,12192,49.22,27.454,13512.9
2897348856,0.63477,2.223,91.5035,-0.179409,0.334566,0.867972,-0.581829,-2.94938,0.0207466,-2.99939,-1.50386,1.36412,-5.57274,-2.92388,0,12192,49.22,27.454,13512.9
2897449225,0.63477,2.223,91.5053,-0.177183,0.333876,0.868286,-0.654467,-3.29546,0.0241039,-2.92351,-1.38445,1.19388,-5.46903,-2.85847,0,12192,49.22,27.454,13512.9
2897549537,0.63477,2.223,91.5134,-0.172949,0.331093,0.868726,-0.721756,-3.631,0.0286791,-2.80885,-1.41084,1.2312,-5.36154,-2.79178,0,12192,49.22,27.454,13512.9
2897649888,0.63477,2.223,91.5237,-0.167955,0.328442,0.869017,-0.790618,-3.95324,0.0346661,-2.75411,-1.28066,1.20752,-5.24355,-2.72069,0,12192,49.22,27.454,13512.9
2897750185,0.63477,2.223,91.535,-0.167211,0.328032,0.869015,-0.87204,-4.25891,0.033796,-2.72732,-1.19717,1.08433,-5.11661,-2.64666,0,12192,49.22,27.454,13512.9
2897850508,0.63477,2.223,91.5449,-0.162988,0.321063,0.870535,-0.93886,-4.55511,0.0259683,-2.69772,-1.24251,0.742917,-4.99371,-2.56653,0,12192,49.22,27.454,13512.9
2897950802,0.63477,2.223,91.554,-0.139657,0.281161,0.877833,-1.00854,-4.82946,0.0344847,-2.44673,-1.01281,0.906635,-4.92751,-2.48037,0,12192,49.29,25.409,12524.1
2898051128,0.63477,2.223,91.5635,-0.108267,0.22352,0.885339,-1.06804,-5.03866,0.0582663,-1.9377,-0.789058,0.397017,-4.85984,-2.39463,0,12192,49.29,25.409,12524.1
2898151529,0.63477,2.223,91.5707,-0.0834745,0.17002,0.890057,-1.10963,-5.17169,0.0566528,-1.35281,-0.435414,-0.0278445,-4.76116,-2.31448,0,12192,49.29,25.409,12524.1
2898251876,0.63477,2.223,91.5819,-0.0606767,0.12058,0.893473,-1.13594,-5.24519,0.0558078,-0.789802,-0.228245,0.0997115,-4.63271,-2.22851,0,12192,49.29,25.409,12524.1
2898352267,0.63477,2.223,91.5896,-0.0395996,0.0786287,0.894768,-1.1538,-5.27334,0.0481839,-0.379648,-0.00764622,-0.149409,-4.4913,-2.14956,0,12192,49.29,25.409,12524.1
2898452622,0.63477,2.223,91.5926,-0.0208563,0.0399927,0.894946,-1.16103,-5.24219,0.04146,0.146227,0.169741,-0.205277,-4.33127,-2.06848,0,12192,49.29,25.409,12524.1
2898552977,0.63477,2.223,91.5922,-0.00736102,0.0128853,0.89514,-1.16233,-5.18213,0.0240764,0.357604,0.350244,-0.320243,-4.18014,-1.99117,0,12192,49.29,25.409,12524.1
2898653311,0.63477,2.223,91.5936,0.00278222,-0.00880327,0.895365,-1.15376,-5.09194,0.0116336,0.668672,0.446854,-0.0551482,-4.0187,-1.90971,0,12192,49.29,25.409,12524.1
2898753663,0.63477,2.223,91.5922,0.0119589,-0.0244147,0.895479,-1.13781,-4.97874,0.00389108,0.83562,0.562492,-0.0393093,-3.87634,-1.84027,0,12192,49.29,25.409,12524.1
2898853967,0.63477,2.223,91.5867,0.018132,-0.0353601,0.894974,-1.11962,-4.84678,-0.00387718,0.964869,0.654148,0.0962861,-3.72441,-1.76896,0,12192,49.29,25.409,12524.1
2898954217,0.63477,2.223,91.5811,0.0206428,-0.0438589,0.894546,-1.10092,-4.70581,-0.0119113,1.03484,0.659684,-0.0588646,-3.5944,-1.70922,0,12192,49.226,26.417,13004
2899054464,0.63477,2.223,91.5811,0.0216035,-0.0510342,0.893974,-1.07471,-4.56596,-0.00526674,1.07763,0.5618,0.19496,-3.45532,-1.64543,0,12192,49.226,26.417,13004
2899154786,0.63477,2.223,91.5756,0.0250151,-0.0541578,0.893635,-1.05314,-4.42006,0.000499181,1.04644,0.674159,-0.0739334,-3.33787,-1.59231,0,12192,49.226,26.417,13004
2899255174,0.63477,2.223,91.5692,0.0232373,-0.0555034,0.893606,-1.04087,-4.27247,-0.00570733,1.10896,0.722299,0.00928644,-3.2173,-1.53688,0,12192,49.226,26.417,13004
2899355502,0.63477,2.223,91.569,0.0176619,-0.0517162,0.894095,-1.01759,-4.12386,-0.00707474,1.0957,0.650162,0.0145949,-3.10448,-1.48283,0,12192,49.226,26.417,13004
2899455879,0.63477,2.223,91.5649,0.0126281,-0.0468961,0.894768,-0.995955,-3.9878,-0.00957276,1.02243,0.585286,0.00643754,-2.98896,-1.4274,0,12192,49.226,26.417,13004
2899556281,0.63477,2.223,91.5574,0.0068088,-0.0421537,0.894754,-0.965643,-3.85855,-0.00821093,1.01637,0.478303,0.161212,-2.89354,-1.38554,0,12192,49.226,26.417,13004
2899656651,0.63477,2.223,91.5508,0.00422473,-0.0381922,0.894983,-0.935737,-3.73519,-0.0101832,0.994493,0.437326,0.00796373,-2.79063,-1.33856,0,12192,49.226,26.417,13004
2899757013,0.63477,2.223,91.5506,0.00130246,-0.0372917,0.895144,-0.910932,-3.62403,-0.0112697,0.89918,0.370392,0.212216,-2.69571,-1.29752,0,12192,49.226,26.417,13004
2899857379,0.634769,2.223,91.5501,-0.00231899,-0.0340633,0.895546,-0.878932,-3.50914,-0.00977398,0.995927,0.379932,0.102904,-2.59676,-1.25259,0,12192,49.226,26.417,13004
2899957729,0.634769,2.223,91.5388,-0.00539921,-0.0334627,0.895873,-0.851918,-3.41173,-0.00417598,0.933104,0.339387,0.134694,-2.505,-1.21191,0,12147,49.185,28.213,13876.6
2900058085,0.634769,2.223,91.5359,-0.00847114,-0.0352264,0.895941,-0.81904,-3.31762,-0.00343089,0.849617,0.282535,0.0591954,-2.41074,-1.16965,0,12147,49.185,28.213,13876.6
2900158500,0.634769,2.223,91.5406,-0.00801859,-0.0374734,0.895915,-0.797696,-3.22752,0.00748242,0.784586,0.337338,0.114702,-2.31147,-1.12704,0,12147,49.185,28.213,13876.6
2900258862,0.634769,2.223,91.546,-0.00711184,-0.0403472,0.895804,-0.766029,-3.13494,0.00844,0.892894,0.275912,0.162857,-2.21506,-1.08449,0,12147,49.185,28.213,13876.6
2900359215,0.634769,2.223,91.5488,-0.00313951,-0.0413744,0.8958,-0.738496,-3.04571,0.0120649,0.834014,0.311766,0.11603,-2.12077,-1.04353,0,12147,49.185,28.213,13876.6
2900459625,0.634769,2.223,91.5473,0.00143968,-0.041964,0.895933,-0.719119,-2.95057,0.0132883,0.871143,0.392757,-0.00143196,-2.03028,-1.00276,0,12147,49.185,28.213,13876.6
2900559978,0.634769,2.223,91.5543,0.00451469,-0.0431038,0.895813,-0.704979,-2.85453,0.016501,0.872385,0.423823,0.036575,-1.93862,-0.963514,0,12147,49.185,28.213,13876.6
2900660385,0.634769,2.223,91.5592,0.00591513,-0.0435032,0.896156,-0.68865,-2.74863,0.0199549,0.905123,0.500662,0.0515205,-1.85232,-0.924716,0,12147,49.185,28.213,13876.6
2900760742,0.634769,2.223,91.5585,0.00342557,-0.0462663,0.89606,-0.674267,-2.65862,0.01134,0.780771,0.38015,0.0593092,-1.76308,-0.886887,0,12147,49.185,28.213,13876.6
2900861102,0.634769,2.223,91.5577,0.00352182,-0.0495477,0.896151,-0.645612,-2.56405,0.0166788,0.905552,0.35016,0.0223112,-1.6799,-0.850372,0,12147,49.185,28.213,13876.6
2900961458,0.634769,2.223,91.5577,0.00134181,-0.0530321,0.896065,-0.621582,-2.46952,0.0116109,0.939354,0.336343,0.0451762,-1.59681,-0.816446,0,12147,49.217,27.265,13419
2901061805,0.634769,2.223,91.5556,0.00175677,-0.0541177,0.896151,-0.59288,-2.37545,0.0132635,0.944194,0.361632,0.00818682,-1.51964,-0.783234,0,12147,49.217,27.265,13419
2901162180,0.634769,2.223,91.5446,0.00148434,-0.0555049,0.896201,-0.566412,-2.28858,0.0116077,0.883053,0.244938,0.210892,-1.44259,-0.751122,0,12147,49.217,27.265,13419
2901262508,0.634769,2.223,91.5363,0.00203515,-0.0562308,0.896165,-0.538936,-2.20076,0.0160232,0.840829,0.283121,0.240272,-1.37082,-0.720089,0,12147,49.217,27.265,13419
2901362817,0.634769,2.223,91.5409,0.00226977,-0.058421,0.89622,-0.513805,-2.11024,0.0116136,0.893926,0.319783,0.141578,-1.30201,-0.690465,0,12147,49.217,27.265,13419
2901463240,0.634769,2.223,91.5424,0.00167757,-0.0582779,0.896245,-0.488429,-2.01831,0.0154221,0.894048,0.354123,0.201808,-1.2374,-0.661885,0,12147,49.217,27.265,13419
2901563610,0.634769,2.223,91.544,0.00308228,-0.0590631,0.896358,-0.459955,-1.92639,0.0234195,0.937333,0.343369,0.155414,-1.17327,-0.63539,0,12147,49.217,27.265,13419
2901663988,0.634769,2.223,91.5553,0.00199184,-0.0583155,0.896598,-0.435982,-1.82664,0.0307023,0.992052,0.414329,0.0713492,-1.11405,-0.609503,0,12147,49.217,27.265,13419
2901764397,0.634769,2.223,91.5635,0.000928205,-0.0577623,0.896726,-0.410161,-1.7437,0.0340277,0.881721,0.297325,-0.152923,-1.05701,-0.584788,0,12147,49.217,27.265,13419
2901864755,0.634769,2.223,91.5743,0.000299673,-0.0584617,0.896659,-0.386207,-1.65584,0.0285825,0.88068,0.362967,-0.134006,-1.00175,-0.561487,0,12147,49.217,27.265,13419
2901966520,0.634769,2.223,91.5817,0.000170919,-0.0579998,0.896555,-0.355589,-1.55529,0.0273974,0.866473,0.317197,0.107039,-0.950018,-0.539317,0,12147,49.209,26.547,13063.5
2902070367,0.634769,2.223,91.5911,-0.00325411,-0.0565951,0.896267,-0.330072,-1.46922,0.0246984,0.872629,0.27584,-0.150282,-0.901313,-0.518361,0,12147,49.209,26.547,13063.5
2902170756,0.634769,2.223,91.5827,-0.00611924,-0.0539375,0.89606,-0.303246,-1.3872,0.0135778,0.807246,0.267277,0.110383,-0.858183,-0.499744,0,12147,49.209,26.547,13063.5
2902271067,0.634769,2.223,91.5749,-0.00679243,-0.0509327,0.895905,-0.268294,-1.31052,0.00445959,0.836837,0.203869,-0.0378276,-0.817778,-0.481112,0,12147,49.209,26.547,13063.5
2902371408,0.634769,2.223,91.5746,-0.00701647,-0.0453057,0.8958,-0.241968,-1.23256,0.00470351,0.76821,0.268555,0.264515,-0.781748,-0.463418,0,12147,49.209,26.547,13063.5
2902471751,0.634769,2.223,91.5756,-0.00745812,-0.0411484,0.895697,-0.218843,-1.16792,0.00661102,0.680821,0.206344,-0.201184,-0.747661,-0.446027,0,12147,49.209,26.547,13063.5
2902572107,0.634769,2.223,91.5626,-0.00711166,-0.0371913,0.895893,-0.193927,-1.10037,0.00102112,0.703256,0.200121,-0.0657216,-0.715016,-0.430514,0,12147,49.209,26.547,13063.5
2902672474,0.634769,2.223,91.547,-0.00651367,-0.0339402,0.895845,-0.173354,-1.03672,-0.00233842,0.640534,0.177395,0.141985,-0.684664,-0.415088,0,12147,49.209,26.547,13063.5
2902772830,0.634769,2.223,91.5421,-0.0054584,-0.0311993,0.89605,-0.159945,-0.975052,0.00465525,0.596191,0.278809,0.168844,-0.656966,-0.400638,0,12147,49.209,26.547,13063.5
2902874359,0.634769,2.223,91.5291,-0.0070154,-0.0290616,0.896191,-0.151458,-0.914847,0.00286367,0.532949,0.251014,0.0720568,-0.631209,-0.38651,0,12147,49.209,26.547,13063.5
2902974726,0.634769,2.223,91.5164,-0.00848261,-0.0286603,0.896212,-0.134544,-0.864373,0.00677924,0.489583,0.18035,0.248589,-0.605664,-0.374323,0,12147,49.209,26.547,13063.5
2903075490,0.634769,2.223,91.507,-0.0100862,-0.0267852,0.896356,-0.118332,-0.809364,0.00803842,0.556042,0.167913,0.145181,-0.582561,-0.362057,0,12147,49.213,26.858,13217.6
2903180399,0.634769,2.223,91.5065,-0.0113548,-0.0220503,0.896621,-0.104645,-0.763008,0.012027,0.489327,0.165692,0.271522,-0.558487,-0.350298,0,12147,49.213,26.858,13217.6
2903284813,0.634769,2.223,91.512,-0.0122637,-0.0178403,0.89672,-0.089672,-0.717864,0.0275126,0.503254,0.117807,0.106684,-0.537451,-0.338829,0,12147,49.213,26.858,13217.6
2903385207,0.634769,2.223,91.5227,-0.0129142,-0.0154403,0.896718,-0.079331,-0.676971,0.0371586,0.446784,0.148359,0.0600704,-0.51552,-0.326978,0,12147,49.213,26.858,13217.6
2903485499,0.634769,2.223,91.5407,-0.0138866,-0.0137359,0.896626,-0.0696119,-0.641208,0.0487131,0.389254,0.119706,-0.0608519,-0.496692,-0.315857,0,12147,49.213,26.858,13217.6
2903585769,0.634769,2.223,91.5623,-0.0148583,-0.0127793,0.896733,-0.0564263,-0.612821,0.046396,0.351364,0.0724496,-0.125558,-0.476097,-0.304673,0,12147,49.213,26.858,13217.6
2903686089,0.634769,2.223,91.5825,-0.0140184,-0.011944,0.896607,-0.0374669,-0.589119,0.0384916,0.371276,-0.0269931,-0.131786,-0.458639,-0.294021,0,12147,49.213,26.858,13217.6
2903786447,0.634769,2.223,91.5937,-0.0122772,-0.00959191,0.896461,-0.0233841,-0.555415,0.0368815,0.35873,0.0481539,-0.154522,-0.437802,-0.28306,0,12147,49.213,26.858,13217.6
2903886809,0.634769,2.223,91.5969,-0.012582,-0.00646345,0.896505,-0.0164343,-0.529913,0.0229827,0.279231,0.0813956,-0.141861,-0.420968,-0.272523,0,12147,49.213,26.858,13217.6
2903987170,0.634769,2.223,91.6088,-0.0118751,-0.00431711,0.896404,9.67905e-05,-0.50502,0.0229126,0.306654,0.0518932,-0.0213826,-0.40073,-0.260681,0,12147,49.218,26.644,13113.6
2904087565,0.634769,2.223,91.619,-0.0108936,-0.00353183,0.896215,0.00147524,-0.481774,0.021277,0.245087,0.121271,-0.139191,-0.384636,-0.249776,0,12147,49.218,26.644,13113.6
2904187975,0.634769,2.223,91.618,-0.0102867,-0.00375717,0.896202,0.00448503,-0.450253,0.0124349,0.322805,0.122097,0.00250481,-0.365951,-0.239206,0,12147,49.218,26.644,13113.6
2904288383,0.634769,2.223,91.613,-0.00891658,-0.00264326,0.896231,0.0106236,-0.423659,0.00230546,0.322303,0.105314,-0.00621332,-0.351188,-0.229532,0,12147,49.218,26.644,13113.6
2904388736,0.634769,2.223,91.6148,-0.00824375,-0.00163945,0.896413,0.0145237,-0.392341,-0.00418206,0.321676,0.150975,-0.103765,-0.336757,-0.22066,0,12147,49.218,26.644,13113.6
2904489051,0.634769,2.223,91.6174,-0.00773718,0.00163708,0.896573,0.0122457,-0.366387,-0.00314413,0.185006,0.173216,-0.0597967,-0.324957,-0.21225,0,12147,49.218,26.644,13113.6
2904589416,0.634769,2.223,91.6115,-0.0073978,0.00205932,0.896721,0.00690804,-0.348307,-0.00337829,0.142713,0.132751,0.0630445,-0.311878,-0.204615,0,12147,49.218,26.644,13113.6
2904689788,0.634769,2.223,91.6029,-0.00907401,0.00185906,0.896651,0.00276501,-0.330049,-0.0110616,0.132849,0.0939579,-0.0896443,-0.300971,-0.197424,0,12147,49.218,26.644,13113.6
2904790166,0.634769,2.223,91.5978,-0.0095688,0.00133655,0.896721,-0.000349246,-0.318593,-0.00856436,0.111552,0.0745985,0.167698,-0.28938,-0.19159,0,12147,49.218,26.644,13113.6
2904890566,0.634769,2.223,91.5967,-0.00946573,8.25629e-05,0.896749,0.000318117,-0.302331,-0.00621448,0.153327,0.0638432,0.136659,-2,-1.3,0,12147,49.218,26.644,13113.6
2904990919,0.634769,2.223,91.5856,-0.00832667,-0.00521055,0.896769,-0.00351391,-0.286821,-0.0108301,0.127139,0.0975525,-0.026586,-2,-1.3,0,12147,49.218,26.644,13113.6
2905091287,0.634769,2.223,91.5691,-0.00018448,-0.021425,0.896674,0.00255289,-0.259165,-0.00560424,0.345051,0.124561,-0.0537319,-2,-1.3,0,12147,49.218,26.644,13113.6
2905191645,0.634769,2.223,91.5586,0.00452098,-0.0282614,0.896586,0.00846341,-0.210937,-0.00980739,0.434251,0.19744,-0.0165649,-2,-1.3,0,12147,49.218,26.644,13113.6
2905291974,0.634769,2.223,91.5434,0.00716677,-0.0302252,0.896368,0.019496,-0.162741,-0.0109563,0.484519,0.211081,0.103358,-2,-1.3,0,12147,49.218,26.644,13113.6
2905392347,0.634769,2.223,91.5268,0.00860905,-0.0292046,0.89626,0.0258144,-0.106412,-0.00712577,0.506194,0.26981,0.154716,-2,-1.3,0,12147,49.218,26.644,13113.6
2905492645,0.634769,2.223,91.51,0.00840202,-0.0261796,0.896152,0.0218136,-0.059763,-0.00400674,0.320687,0.309503,0.221085,-2,-1.3,0,12147,49.218,26.644,13113.6
2905592987,0.634769,2.223,91.5018,0.00653868,-0.0231965,0.896198,0.0186193,-0.012788,0.00830647,0.380166,0.275558,0.166839,-2,-1.3,0,12147,49.217,26.164,12877.1
2905693351,0.634769,2.223,91.5,0.0029681,-0.0188673,0.896222,0.0247543,0.0339141,0.0225667,0.385291,0.234524,0.151693,-2,-1.3,0,12147,49.217,26.164,12877.1
2905793695,0.634769,2.223,91.5062,-0.00139908,-0.0134834,0.896114,0.0191708,0.0747659,0.0379969,0.283677,0.265247,0.0132395,-2,-1.3,0,12147,49.217,26.164,12877.1
2905894088,0.634769,2.223,91.5086,-0.00664306,-0.00781526,0.896173,0.0253197,0.10256,0.0292723,0.253159,0.126151,0.0720658,-0.8,0.4,0,12147,49.217,26.164,12877.1
2905994435,0.634769,2.223,91.5067,-0.00789911,0.00824276,0.897251,0.0266797,0.133461,0.0354945,0.244347,0.113128,0.0173977,-0.8,0.4,0,12147,49.217,26.164,12877.1
2906094852,0.634769,2.223,91.5106,0.0174769,0.068791,0.898212,0.018265,0.146112,0.0561985,-0.123075,0.195518,-0.038818,-0.8,0.4,0,12147,49.217,26.164,12877.1
2906195319,0.634769,2.223,91.5158,0.0410414,0.116689,0.899287,-0.0568774,0.122733,0.0296748,-0.752703,0.425571,-0.130455,-0.8,0.4,0,12147,49.217,26.164,12877.1
2906295688,0.634769,2.223,91.5171,0.0550784,0.140558,0.900234,-0.183687,0.0729799,0.0269764,-1.23092,0.659359,0.0233219,-0.8,0.4,0,12147,49.217,26.164,12877.1
2906396085,0.634769,2.223,91.5243,0.054742,0.140702,0.899957,-0.327025,0.0198616,0.0311423,-1.26762,0.737454,0.314002,-0.8,0.4,0,12147,49.217,26.164,12877.1
2906497514,0.634769,2.223,91.5372,0.045088,0.126606,0.898948,-0.462508,-0.0355798,0.0430738,-1.29522,0.674529,-0.0686415,-0.8,0.4,0,12147,49.217,26.164,12877.1
2906606194,0.634769,2.223,91.545,0.0329017,0.106494,0.897805,-0.589694,-0.0831656,0.0369527,-0.896412,0.513595,0.000281304,-0.8,0.4,0,12147,49.262,25.461,12542.6
2906707669,0.634769,2.223,91.5526,0.0210226,0.0869538,0.897185,-0.671529,-0.113606,0.0405848,-0.708249,0.404929,0.0377807,-0.8,0.4,0,12147,49.262,25.461,12542.6
2906808076,0.634769,2.223,91.5602,0.010479,0.0713683,0.896612,-0.735823,-0.13639,0.0277598,-0.555372,0.277702,-0.121064,-0.8,0.4,0,12147,49.262,25.461,12542.6
2906908481,0.634769,2.223,91.5685,0.001927,0.0581458,0.896187,-0.784815,-0.155428,0.0300477,-0.408324,0.194028,0.117777,5,4.6,0,12147,49.262,25.461,12542.6
2907008828,0.634769,2.223,91.5589,0.00413631,0.032128,0.89788,-0.821086,-0.185761,0.0218651,-0.480214,0.0582539,0.0933062,5,4.6,0,12147,49.262,25.461,12542.6
2907109197,0.634769,2.223,91.55,0.0946161,-0.121539,0.892761,-0.839114,-0.157761,0.0538219,0.589462,0.463797,0.299896,5,4.6,0,12147,49.262,25.461,12542.6
2907209554,0.634769,2.223,91.5536,0.181257,-0.245468,0.873816,-0.829745,0.09596,0.0161692,2.21374,1.5808,0.107889,5,4.6,0,12147,49.262,25.461,12542.6
2907309920,0.634769,2.223,91.5496,0.232576,-0.312542,0.858089,-0.805766,0.471705,-0.0295413,2.90887,2.01658,1.52812,5,4.6,0,12147,49.262,25.461,12542.6
2907410267,0.634769,2.223,91.5337,0.263329,-0.345865,0.848055,-0.779722,0.939866,-0.0228278,3.42821,2.40454,1.92665,5,4.6,0,12147,49.262,25.461,12542.6
2907510601,0.634769,2.223,91.5162,0.270189,-0.35376,0.845511,-0.74966,1.43373,-0.0199532,3.50802,2.43936,2.35028,5,4.6,0,12147,49.262,25.461,12542.6
2907610914,0.634769,2.223,91.4925,0.267772,-0.350662,0.846283,-0.72439,1.93225,-0.00841035,3.52418,2.49415,2.37399,5,4.6,0,12147,49.262,25.841,12729.8
2907711266,0.634769,2.223,91.4766,0.265804,-0.346162,0.847363,-0.702172,2.41525,0.0100471,3.40985,2.49761,2.1585,5,4.6,0,12147,49.262,25.841,12729.8
2907811579,0.634769,2.223,91.4861,0.261048,-0.337914,0.849307,-0.675402,2.88618,0.0214015,3.3226,2.39502,2.08627,5,4.6,0,12147,49.262,25.841,12729.8
2907912087,0.634769,2.223,91.4937,0.255038,-0.329918,0.851688,-0.66091,3.33461,0.030103,3.16708,2.34944,1.74012,3.8,-0.8,0,12147,49.262,25.841,12729.8
2908012390,0.634769,2.223,91.4962,0.221512,-0.321723,0.859504,-0.645265,3.76424,0.027117,3.01275,2.27548,1.62006,3.8,-0.8,0,12147,49.262,25.841,12729.8
2908112709,0.634769,2.223,91.5035,0.00534087,-0.275295,0.903614,-0.584477,4.18233,0.102428,3.05249,1.60288,1.7652,3.8,-0.8,0,12147,49.262,25.841,12729.8
2908213073,0.634769,2.223,91.5226,-0.256195,-0.177958,0.922318,-0.344354,4.30557,0.140516,2.05939,-1.51671,0.45335,3.8,-0.8,0,12147,49.262,25.841,12729.8
2908313427,0.634769,2.223,91.5398,-0.389484,-0.127073,0.917388,-0.0189064,4.21767,0.0582536,1.23801,-3.25289,0.793925,3.8,-0.8,0,12147,49.262,25.841,12729.8
2908413774,0.634769,2.223,91.5605,-0.450027,-0.102685,0.910644,0.387046,4.02407,0.0252401,0.834332,-4.28297,1.60082,3.8,-0.8,0,12147,49.262,25.841,12729.8
2908514162,0.634769,2.223,91.5839,-0.466603,-0.094433,0.906067,0.82005,3.7798,0.0227423,0.670478,-4.54433,1.9985,3.8,-0.8,0,12147,49.262,25.841,12729.8
2908614515,0.634769,2.223,91.6136,-0.446784,-0.0895548,0.900908,1.24656,3.53059,0.00608494,0.641649,-4.52628,1.97147,3.8,-0.8,0,12147,49.262,25.841,12729.8
2908714814,0.634769,2.223,91.64,-0.387859,-0.0844142,0.896612,1.64085,3.29195,0.00790212,0.569315,-4.09339,1.70883,3.8,-0.8,0,12147,49.23,26.552,13071.5
2908817326,0.634769,2.223,91.6395,-0.314952,-0.0794099,0.894042,1.96522,3.09331,-0.000116266,0.475902,-3.44066,1.2254,3.8,-0.8,0,12147,49.23,26.552,13071.5
2908917745,0.634769,2.223,91.6356,-0.24491,-0.0766537,0.894122,2.21287,2.93702,0.0021848,0.335216,-2.63925,0.698473,4.5,3.7,0,12147,49.23,26.552,13071.5
2909018104,0.634769,2.223,91.6344,-0.174053,-0.0751032,0.892613,2.4057,2.81451,0.00113241,0.278857,-2.00916,0.529758,4.5,3.7,0,12147,49.23,26.552,13071.5
2909118456,0.634769,2.223,91.6309,0.0592537,-0.0783264,0.883749,2.55421,2.74009,0.0286352,0.397373,-1.17299,0.383237,4.5,3.7,0,12147,49.23,26.552,13071.5
2909218847,0.634769,2.223,91.6309,0.273851,-0.0787456,0.882181,2.46818,2.84759,0.0231176,0.381018,1.80789,-0.328543,4.5,3.7,0,12147,49.23,26.552,13071.5
2909319169,0.634769,2.223,91.6304,0.38994,-0.0881537,0.881358,2.22395,3.07647,-0.0618838,0.347011,3.45743,1.02182,4.5,3.7,0,12147,49.23,26.552,13071.5
2909419468,0.634769,2.223,91.6216,0.440742,-0.0970216,0.881176,1.89839,3.39889,-0.073633,0.444652,4.23239,2.00207,4.5,3.7,0,12147,49.23,26.552,13071.5
2909519840,0.634769,2.223,91.6153,0.445801,-0.107209,0.881044,1.54376,3.74862,-0.0666576,0.509425,4.45921,2.31498,4.5,3.7,0,12147,49.23,26.552,13071.5
2909620238,0.634769,2.223,91.5899,0.432613,-0.119805,0.880834,1.19514,4.11117,-0.0592423,0.602829,4.39693,2.33559,4.5,3.7,0,12147,49.23,26.552,13071.5
2909720559,0.634769,2.223,91.5678,0.40166,-0.13196,0.880164,0.873425,4.47777,-0.0483481,0.819625,4.19355,2.21541,4.5,3.7,0,12147,49.123,29.203,14345.4
2909820916,0.634769,2.223,91.5582,0.33882,-0.129696,0.88346,0.591968,4.82464,-0.0191124,0.816187,3.62219,2.01714,4.5,3.7,0,12147,49.123,29.203,14345.4
2909921295,0.634769,2.223,91.5559,0.26907,-0.126046,0.886691,0.362894,5.11073,0.00375425,0.768376,3.10729,1.06682,0.9,4.5,0,12147,49.123,29.203,14345.4
2910021621,0.634769,2.223,91.5562,0.20532,-0.103483,0.891338,0.206349,5.34153,0.0171624,0.77411,2.22563,0.923341,0.9,4.5,0,12147,49.123,29.203,14345.4
2910121973,0.634769,2.223,91.5672,0.159027,0.090445,0.899756,0.0846528,5.53437,0.135393,0.402962,1.67723,1.12969,0.9,4.5,0,12147,49.123,29.203,14345.4
2910222344,0.634769,2.223,91.5996,0.152984,0.256707,0.911497,-0.159752,5.46,0.105032,-2.35574,1.29512,-0.358639,0.9,4.5,0,12147,49.123,29.203,14345.4
2910322723,0.634769,2.223,91.6224,0.166445,0.352154,0.924977,-0.478907,5.29245,0.00602558,-3.33714,1.26804,0.806762,0.9,4.5,0,12147,49.123,29.203,14345.4
2910423025,0.634769,2.223,91.6293,0.181585,0.402544,0.936139,-0.883325,5.06621,-0.0131268,-3.95567,1.38303,1.80865,0.9,4.5,0,12147,49.123,29.203,14345.4
2910523392,0.634769,2.223,91.6428,0.175956,0.399929,0.937991,-1.30802,4.81465,-0.0394215,-4.21029,1.45146,1.87018,0.9,4.5,0,12147,49.123,29.203,14345.4
2910623711,0.634769,2.223,91.6601,0.151164,0.352792,0.93235,-1.70809,4.55166,-0.0346534,-4.16076,1.23422,1.50813,0.9,4.5,0,12147,49.123,29.203,14345.4
2910724098,0.634769,2.223,91.6794,0.123617,0.289009,0.924707,-2.03519,4.32594,-0.0292602,-3.43916,1.02839,1.06799,0.9,4.5,0,12102,49.052,31.079,15244.9
2910824455,0.634769,2.223,91.6883,0.101055,0.217872,0.916524,-2.2865,4.14422,-0.0245096,-2.73453,0.72797,0.483828,0.9,4.5,0,12102,49.052,31.079,15244.9
2910924828,0.634769,2.223,91.6893,0.0841108,0.153275,0.909607,-2.46272,4.00694,-0.042086,-1.96837,0.496834,0.183056,4.6,0.3,0,12102,49.052,31.079,15244.9
2911025184,0.634769,2.223,91.6856,0.0623888,0.0952476,0.903204,-2.60651,3.91329,-0.0426564,-1.36489,0.510091,0.223651,4.6,0.3,0,12102,49.052,31.079,15244.9
2911125551,0.634769,2.223,91.6776,-0.0950387,-0.0736638,0.899851,-2.6907,3.82677,-0.0179002,-0.805754,-0.0536453,0.754005,4.6,0.3,0,12102,49.052,31.079,15244.9
2911225886,0.634769,2.223,91.6609,-0.250396,-0.208897,0.922794,-2.46237,3.79646,0.00796259,1.4953,-2.18442,0.165182,4.6,0.3,0,12102,49.052,31.079,15244.9
2911326244,0.634769,2.223,91.6419,-0.33628,-0.28936,0.945405,-1.97651,3.75971,-0.0852219,2.36581,-3.16509,1.71517,4.6,0.3,0,12102,49.052,31.079,15244.9
2911426581,0.634769,2.223,91.6187,-0.371801,-0.323808,0.956061,-1.44336,3.75226,-0.0913078,2.95294,-3.60543,2.65723,4.6,0.3,0,12102,49.052,31.079,15244.9
2911526920,0.634769,2.223,91.6014,-0.375703,-0.323897,0.953938,-0.885041,3.75459,-0.0863161,3.03637,-3.62863,2.78664,4.6,0.3,0,12102,49.052,31.079,15244.9
2911627333,0.634769,2.223,91.5781,-0.36505,-0.313911,0.947847,-0.346432,3.73603,-0.0812131,2.8514,-3.69039,2.43322,4.6,0.3,0,12102,49.052,31.079,15244.9
2911727716,0.634769,2.223,91.5531,-0.348599,-0.307034,0.942755,0.181929,3.71625,-0.0556857,2.63449,-3.45807,2.77148,4.6,0.3,0,12102,49.07,29.702,14574.8
2911828557,0.634769,2.223,91.5521,-0.319612,-0.299058,0.936944,0.680574,3.70729,-0.0318641,2.59835,-3.32564,2.14329,4.6,0.3,0,12102,49.07,29.702,14574.8
2911930523,0.634769,2.223,91.556,-0.252973,-0.26493,0.923859,1.13364,3.71801,-0.00363573,2.37433,-2.83927,1.87405,-4.48602,-4.1343,0,12102,49.07,29.702,14574.8
2912031051,0.634769,2.223,91.5654,-0.182559,-0.201012,0.911734,1.50259,3.73953,0.0174803,2.10373,-2.3157,1.30856,-4.6664,-4.2552,0,12102,49.07,29.702,14574.8
2912131455,0.634769,2.223,91.5759,-0.122738,0.0181624,0.893139,1.75743,3.75275,0.119715,0.97731,-1.45473,0.88954,-4.83382,-4.44513,0,12102,49.07,29.702,14574.8
2912231850,0.634769,2.223,91.6051,-0.0844368,0.202291,0.88429,1.76489,3.58612,0.0799155,-1.69906,-0.893224,-0.511943,-4.8825,-4.38867,0,12102,49.07,29.702,14574.8
2912332297,0.634769,2.223,91.6364,-0.0615521,0.316841,0.880113,1.64952,3.32512,0.0213484,-3.0184,-0.546959,0.625215,-4.90049,-4.27334,0,12102,49.07,29.702,14574.8
2912432700,0.634769,2.223,91.6637,-0.0525026,0.376108,0.877064,1.46226,3.00029,0.00547911,-3.69077,-0.424225,1.26021,-4.92314,-4.20528,0,12102,49.07,29.702,14574.8
2912533041,0.634769,2.223,91.6966,-0.0583302,0.398751,0.874808,1.24083,2.66315,-0.0145719,-4.01721,-0.315867,1.15939,-5.00165,-4.1848,0,12102,49.07,29.702,14574.8
2912633387,0.634769,2.223,91.7145,-0.0688387,0.398261,0.873503,1.02237,2.31193,-0.0369824,-4.04085,-0.511242,1.33763,-5.10534,-4.20369,0,12102,49.07,29.702,14574.8
2912733767,0.634769,2.223,91.726,-0.078035,0.381332,0.873409,0.808048,1.94686,-0.0666908,-4.02296,-0.555634,1.28299,-5.23461,-4.24449,0,12102,49.051,29.079,14263.5
2912834141,0.634769,2.223,91.7211,-0.0801291,0.347784,0.875372,0.599326,1.58676,-0.0671425,-3.77565,-0.62463,1.37354,-5.36888,-4.31047,0,12102,49.051,29.079,14263.5
2912934546,0.634769,2.223,91.7158,-0.0768311,0.300321,0.878942,0.421822,1.26122,-0.0543674,-3.40247,-0.628352,0.945899,-5.52523,-4.37486,0,12102,49.051,29.079,14263.5
2913034870,0.634769,2.223,91.7153,-0.080326,0.261361,0.879705,0.272564,0.982342,-0.0518509,-2.89352,-0.638382,0.680704,-5.60232,-4.44425,0,12102,49.051,29.079,14263.5
2913135163,0.634769,2.223,91.7122,-0.13327,0.274741,0.870088,0.152493,0.731057,-0.0380834,-2.60943,-0.790384,0.615114,-5.55599,-4.49624,0,12102,49.051,29.079,14263.5
2913235534,0.634769,2.223,91.7113,-0.188574,0.292108,0.863356,0.0650817,0.427784,-0.0591019,-2.65647,-1.37645,0.749512,-5.47686,-4.53361,0,12102,49.051,29.079,14263.5
2913335914,0.634769,2.223,91.7052,-0.226068,0.302451,0.858934,0.00139642,0.0753484,-0.0786632,-2.81568,-1.7036,1.25383,-5.42828,-4.5554,0,12102,49.051,29.079,14263.5
2913436319,0.634769,2.223,91.6935,-0.246795,0.306084,0.8573,-0.0423294,-0.314718,-0.0772139,-2.85453,-1.93378,1.60988,-5.37837,-4.57142,0,12102,49.051,29.079,14263.5
2913536743,0.634769,2.223,91.6786,-0.253048,0.304818,0.857897,-0.071838,-0.70702,-0.073444,-2.80487,-2.0368,1.70939,-5.35247,-4.56945,0,12102,49.051,29.079,14263.5
2913637064,0.634769,2.223,91.6692,-0.253375,0.300285,0.859286,-0.0938062,-1.10707,-0.0663814,-2.87716,-2.13111,1.55127,-5.31503,-4.56133,0,12102,49.051,29.079,14263.5
2913737413,0.634769,2.223,91.6655,-0.252849,0.296462,0.859706,-0.113834,-1.48862,-0.0557986,-2.75409,-2.07506,1.4086,-5.27359,-4.54588,0,12102,49.051,29.079,14263.5
2913837767,0.634769,2.223,91.6596,-0.248754,0.29189,0.860674,-0.118663,-1.86006,-0.0421222,-2.64686,-2.08723,1.39082,-5.22377,-4.51779,0,12102,49.131,28.19,13850
2913938138,0.634769,2.223,91.6556,-0.245807,0.289046,0.861186,-0.122315,-2.21569,-0.0348961,-2.5264,-2.05712,1.16834,-5.16547,-4.48158,0,12102,49.131,28.19,13850
2914038469,0.634769,2.223,91.6534,-0.24486,0.284345,0.861778,-0.125676,-2.56612,-0.031873,-2.56367,-2.00041,1.13747,-5.10297,-4.43445,0,12102,49.131,28.19,13850
2914138835,0.634769,2.223,91.6555,-0.243719,0.279259,0.862669,-0.121479,-2.89789,-0.0192969,-2.43174,-1.92504,1.03725,-5.03506,-4.38063,0,12102,49.131,28.19,13850
2914240469,0.634769,2.223,91.6616,-0.243141,0.276482,0.863225,-0.122755,-3.20883,-0.023957,-2.38335,-1.79246,0.904827,-4.95793,-4.31022,0,12102,49.131,28.19,13850
2914344946,0.634769,2.223,91.6648,-0.242868,0.273636,0.863962,-0.112191,-3.52901,-0.0210258,-2.25957,-1.89706,1.21563,-4.87257,-4.2365,0,12102,49.131,28.19,13850
2914445315,0.634769,2.223,91.6792,-0.242786,0.272092,0.864229,-0.0948055,-3.8273,-0.0220552,-2.23709,-1.89681,0.70163,-4.67953,-4.06321,0,12102,49.131,28.19,13850
2914545685,0.634769,2.223,91.6792,-0.243401,0.270646,0.864043,-0.0783527,-4.1204,-0.0325812,-2.13959,-1.81382,0.946214,-4.58015,-3.97,0,12102,49.131,28.19,13850
2914646033,0.634769,2.223,91.6735,-0.240376,0.270789,0.86357,-0.063175,-4.41774,-0.0334818,-2.18447,-1.8281,0.963058,-4.46473,-3.87167,0,12102,49.131,28.19,13850
2914746347,0.634769,2.223,91.6693,-0.235779,0.268177,0.863735,-0.0602212,-4.70108,-0.0442513,-2.1062,-1.6156,1.0749,-4.35213,-3.76054,0,12102,49.131,28.19,13850
2914846695,0.634769,2.223,91.6644,-0.212181,0.244134,0.869148,-0.0522084,-4.9767,-0.0408011,-1.96116,-1.54178,1.07728,-4.27261,-3.64043,0,12058,49.086,28.05,13768.6
2914947047,0.634769,2.223,91.6548,-0.173947,0.204808,0.877377,-0.0445827,-5.20294,-0.0265772,-1.57188,-1.25082,0.908624,-4.20087,-3.5149,0,12058,49.086,28.05,13768.6
2915047405,0.634769,2.223,91.6487,-0.136966,0.163394,0.88454,-0.0481231,-5.36077,-0.0188673,-1.23739,-0.820369,0.334939,-4.11094,-3.38551,0,12058,49.086,28.05,13768.6
2915147758,0.634769,2.223,91.6421,-0.104021,0.120605,0.889164,-0.0499741,-5.45814,-0.0221621,-0.738656,-0.436313,0.33285,-4.01406,-3.26508,0,12058,49.086,28.05,13768.6
2915249604,0.634769,2.223,91.6381,-0.069892,0.0816672,0.892448,-0.0478404,-5.5128,-0.0181584,-0.362191,-0.223054,0.0234995,-3.89205,-3.13952,0,12058,49.086,28.05,13768.6
2915352676,0.634769,2.223,91.6479,-0.0382295,0.0478861,0.894443,-0.0507572,-5.49968,-0.0158364,-0.0121923,0.100917,0.0986529,-3.76808,-3.02031,0,12058,49.086,28.05,13768.6
2915454543,0.634769,2.223,91.6601,-0.0137802,0.0221845,0.895686,-0.0591324,-5.43781,-0.00355537,0.270811,0.484459,-0.115183,-3.62861,-2.89733,0,12058,49.086,28.05,13768.6
2915554944,0.634769,2.223,91.6624,0.00284732,0.00289372,0.895381,-0.0776128,-5.35714,-0.00379564,0.36907,0.68729,-0.0662635,-3.49889,-2.7935,0,12058,49.086,28.05,13768.6
2915659946,0.634769,2.223,91.6545,0.0122556,-0.0140814,0.895413,-0.0862033,-5.25246,-0.0193151,0.622486,0.679705,-0.0467313,-3.36115,-2.68333,0,12058,49.086,28.05,13768.6
2915764163,0.634769,2.223,91.6552,0.0142779,-0.0180086,0.895711,-0.0862831,-5.11862,-0.0306372,0.892503,0.71816,0.0343659,-3.23791,-2.58451,0,12058,49.086,28.05,13768.6
2915864524,0.634769,2.223,91.6646,0.0208172,-0.0266845,0.895567,-0.0944608,-4.99352,-0.031238,0.82636,0.781055,-0.095904,-3.1065,-2.48209,0,12058,49.109,28.111,13805
2915964909,0.634769,2.223,91.6603,0.0249542,-0.0348888,0.895437,-0.106636,-4.85336,-0.0362525,0.906034,0.931355,-0.0241724,-2.99179,-2.39328,0,12058,49.109,28.111,13805
2916065257,0.634769,2.223,91.6557,0.0279158,-0.0413677,0.895702,-0.118642,-4.70652,-0.0525295,0.925618,0.979769,0.0308324,-2.87135,-2.29876,0,12058,49.109,28.111,13805
2916165614,0.634769,2.223,91.6646,0.0290596,-0.0453584,0.895671,-0.120266,-4.55809,-0.0411526,0.994689,0.891055,0.266198,-2.76541,-2.22108,0,12058,49.109,28.111,13805
2916265962,0.634769,2.223,91.678,0.0273404,-0.0467434,0.89568,-0.121748,-4.37865,-0.0422679,1.03371,0.832989,-0.133287,-2.65397,-2.13777,0,12058,49.109,28.111,13805
2916366280,0.634769,2.223,91.6743,0.024236,-0.0476292,0.895363,-0.121914,-4.23269,-0.0517442,0.988512,0.78787,0.110149,-2.55753,-2.06997,0,12058,49.109,28.111,13805
2916466665,0.634769,2.223,91.6742,0.0233483,-0.0496869,0.895353,-0.117079,-4.08746,-0.0452326,1.00928,0.754626,0.301,-2.45631,-1.99555,0,12058,49.109,28.111,13805
2916566958,0.634769,2.223,91.6747,0.020003,-0.0517076,0.89521,-0.111184,-3.94658,-0.0441957,1.00122,0.714204,-0.129204,-2.36326,-1.93106,0,12058,49.109,28.111,13805
2916667295,0.634769,2.223,91.6665,0.0188205,-0.0508029,0.895259,-0.104373,-3.80609,-0.0525587,0.987585,0.692369,0.0882493,-2.26807,-1.86184,0,12058,49.109,28.111,13805
2916767665,0.634769,2.223,91.6545,0.0163385,-0.0478374,0.895298,-0.0988668,-3.67081,-0.058957,1.00152,0.69649,0.0212668,-2.17823,-1.79655,0,12058,49.109,28.111,13805
2916868067,0.634769,2.223,91.6441,0.0128843,-0.0436791,0.89534,-0.0891701,-3.54719,-0.0627625,0.905827,0.549448,0.297088,-2.08806,-1.72966,0,12058,49.064,27.533,13508.8
2916968457,0.634769,2.223,91.6367,0.0105892,-0.0421837,0.895762,-0.0763246,-3.41766,-0.0578656,0.973446,0.616637,0.117034,-2.00331,-1.66719,0,12058,49.064,27.533,13508.8
2917068745,0.634769,2.223,91.6262,0.00390879,-0.0413297,0.895417,-0.0634708,-3.30468,-0.0588206,0.887107,0.473294,-0.0359528,-1.91826,-1.60529,0,12058,49.064,27.533,13508.8
2917169094,0.634769,2.223,91.6224,0.00100551,-0.0448247,0.895409,-0.0420956,-3.19817,-0.0595941,0.894376,0.428839,0.170781,-1.84125,-1.54736,0,12058,49.064,27.533,13508.8
2917269434,0.634769,2.223,91.6157,0.00210496,-0.0481509,0.894524,-0.0141642,-3.08024,-0.045722,1.02057,0.462609,0.286049,-1.76326,-1.4898,0,12058,49.064,27.533,13508.8
2917369785,0.634769,2.223,91.611,0.00746601,-0.0449641,0.893738,0.0161318,-2.96727,-0.0338464,0.986218,0.429061,0.0937369,-1.68932,-1.43389,0,12058,49.064,27.533,13508.8
2917470139,0.634769,2.223,91.6084,0.0115295,-0.0418915,0.893224,0.0264906,-2.86064,-0.0372987,0.882989,0.539408,0.0401019,-1.6164,-1.37635,0,12058,49.064,27.533,13508.8
2917570482,0.634769,2.223,91.6136,0.0123609,-0.0368621,0.893504,0.04077,-2.75168,-0.0251353,0.862194,0.490616,0.392788,-1.54571,-1.31747,0,12058,49.064,27.533,13508.8
2917670860,0.634769,2.223,91.6224,0.0138785,-0.0318118,0.89358,0.0547157,-2.6474,-0.013146,0.815658,0.443433,-0.136993,-1.47779,-1.26069,0,12058,49.064,27.533,13508.8
2917771227,0.634769,2.223,91.6284,0.0157576,-0.0257839,0.893701,0.0611396,-2.54618,-0.0147712,0.773387,0.497156,0.132669,-1.41556,-1.20889,0,12058,49.064,27.533,13508.8
2917871515,0.634769,2.223,91.635,0.0184695,-0.0213751,0.894009,0.0580538,-2.45844,-0.0166769,0.664627,0.523554,-0.109059,-1.35543,-1.15773,0,12058,49.191,24.506,12054.7
2917971896,0.634769,2.223,91.6333,0.0196683,-0.0187303,0.89453,0.047019,-2.36467,-0.0186109,0.620189,0.632076,0.10782,-1.29762,-1.10866,0,12058,49.191,24.506,12054.7
2918072286,0.634769,2.223,91.634,0.0167732,-0.0185033,0.894463,0.0336205,-2.2811,-0.0217315,0.550548,0.593286,-0.0689246,-1.2409,-1.06177,0,12058,49.191,24.506,12054.7
2918172629,0.634769,2.223,91.6322,0.0133636,-0.0201171,0.894426,0.0255483,-2.19414,-0.0240975,0.591064,0.548445,0.0259462,-1.18097,-1.01675,0,12058,49.191,24.506,12054.7
2918274523,0.634769,2.223,91.6279,0.0108839,-0.0218238,0.894747,0.0182896,-2.11165,-0.0180364,0.536475,0.494758,0.0957682,-1.12548,-0.972827,0,12058,49.191,24.506,12054.7
2918374892,0.634769,2.223,91.6344,0.00721445,-0.0244196,0.894893,0.014807,-2.04051,-0.0263649,0.512244,0.365402,-0.0662966,-1.07215,-0.932801,0,12058,49.191,24.506,12054.7
2918475247,0.634769,2.223,91.6428,0.00515623,-0.0295019,0.894592,0.0113454,-1.96522,-0.0199883,0.565636,0.407248,0.00872141,-1.02085,-0.893591,0,12058,49.191,24.506,12054.7
2918575609,0.634769,2.223,91.6445,0.00423482,-0.0330331,0.893985,0.022367,-1.88767,-0.013677,0.647938,0.302292,0.177107,-0.969892,-0.855904,0,12058,49.191,24.506,12054.7
2918675956,0.634769,2.223,91.6481,0.00534824,-0.0352761,0.893208,0.0332136,-1.80849,-0.0189237,0.636265,0.303778,0.178179,-0.922177,-0.819091,0,12058,49.191,24.506,12054.7
2918776338,0.634769,2.223,91.6515,0.00846354,-0.0352793,0.892733,0.046971,-1.72589,-0.0163989,0.70806,0.343468,0.03829,-0.876593,-0.783143,0,12058,49.191,24.506,12054.7
2918876708,0.634769,2.223,91.656,0.0108329,-0.0310327,0.892704,0.0472832,-1.63847,-0.0228611,0.680587,0.455288,0.0403815,-0.834567,-0.748019,0,12058,49.198,25.035,12316.7
2918977085,0.634769,2.223,91.6577,0.00929929,-0.0267925,0.892712,0.0473312,-1.56214,-0.0299463,0.608253,0.463602,0.000511689,-0.79295,-0.713353,0,12058,49.198,25.035,12316.7
2919077428,0.634769,2.223,91.6543,0.0088999,-0.024786,0.892918,0.05081,-1.49566,-0.0395302,0.551279,0.349443,0.0656907,-0.754467,-0.680192,0,12058,49.198,25.035,12316.7
2919177762,0.634769,2.223,91.644,0.00933094,-0.0218029,0.893342,0.0515241,-1.4287,-0.0385351,0.560143,0.374819,0.0234146,-0.715631,-0.647399,0,12058,49.198,25.035,12316.7
2919278133,0.634769,2.223,91.634,0.0089182,-0.0193835,0.893455,0.0500247,-1.36089,-0.0476821,0.552653,0.422473,0.166364,-0.67983,-0.616549,0,12058,49.198,25.035,12316.7
2919378543,0.634769,2.223,91.6319,0.00988497,-0.0166067,0.894173,0.0460431,-1.29767,-0.0405848,0.474369,0.351569,0.174361,-0.64821,-0.587704,0,12058,49.198,25.035,12316.7
2919478909,0.634769,2.223,91.6328,0.00919997,-0.0147215,0.894326,0.0400714,-1.24076,-0.0327618,0.409644,0.376002,0.0393273,-0.617625,-0.56032,0,12058,49.198,25.035,12316.7
2919579249,0.634769,2.223,91.6325,0.00852839,-0.0138363,0.895128,0.0349893,-1.17933,-0.0319613,0.423415,0.339154,0.0114744,-0.588421,-0.533338,0,12058,49.198,25.035,12316.7
2919679604,0.634769,2.223,91.6326,0.00745822,-0.0122642,0.89525,0.0242867,-1.13303,-0.0282513,0.320407,0.323772,0.0884111,-0.560347,-0.508169,0,12058,49.198,25.035,12316.7
2919779947,0.634769,2.223,91.6361,0.00773477,-0.0139293,0.895347,0.0165361,-1.07467,-0.0167479,0.473745,0.379888,0.0224399,-0.532858,-0.483857,0,12058,49.198,25.035,12316.7
2919880291,0.634769,2.223,91.6319,0.00701717,-0.0125362,0.895709,0.00426227,-1.03403,-0.0257064,0.275889,0.331708,-0.0729991,-0.50711,-0.460844,0,12013,49.161,25.395,12484.4
2919980706,0.634769,2.223,91.626,0.00637186,-0.0130407,0.895922,0.00255891,-0.996844,-0.0207223,0.307883,0.245945,0.0987401,-0.479001,-0.438809,0,12013,49.161,25.395,12484.4
2920081064,0.634769,2.223,91.6178,0.00703858,-0.0121556,0.896033,-0.00467633,-0.955622,-0.0222144,0.341677,0.291015,-0.179289,-0.453313,-0.417803,0,12013,49.161,25.395,12484.4
2920181408,0.634769,2.223,91.6128,0.00946377,-0.0100914,0.896511,-0.0115802,-0.916348,-0.0196364,0.283585,0.276712,0.0460107,-0.428689,-0.397301,0,12013,49.161,25.395,12484.4
2920281783,0.634769,2.223,91.6145,0.0100745,-0.007492,0.896971,-0.0221523,-0.873623,-0.0148434,0.305882,0.332016,-0.0388546,-0.405727,-0.377973,0,12013,49.161,25.395,12484.4
2920382124,0.634769,2.223,91.613,0.00923785,-0.00782052,0.897161,-0.0359769,-0.835613,-0.0119138,0.257135,0.385545,0.065719,-0.382679,-0.360717,0,12013,49.161,25.395,12484.4
2920482458,0.634769,2.223,91.6113,0.00542765,-0.00916185,0.897377,-0.0513191,-0.796754,-0.0153581,0.236166,0.321872,-0.105844,-0.361096,-0.344417,0,12013,49.161,25.395,12484.4
2920582859,0.634769,2.223,91.6128,0.00363094,-0.0123402,0.89753,-0.0598296,-0.756301,-0.0147533,0.264252,0.329217,0.189666,-0.338806,-0.329158,0,12013,49.161,25.395,12484.4
2920683245,0.634769,2.223,91.6087,0.00106497,-0.0152758,0.897509,-0.0605326,-0.710141,-0.0176994,0.422013,0.264355,0.0842276,-0.318359,-0.314932,0,12013,49.161,25.395,12484.4
2920783633,0.634769,2.223,91.6023,-9.68163e-05,-0.0162216,0.897472,-0.0631041,-0.680562,-0.00964762,0.225965,0.199308,0.0671113,-0.298438,-0.30396,0,12013,49.161,25.395,12484.4
2920884114,0.634769,2.223,91.5985,0.000417918,-0.0185377,0.897303,-0.0651889,-0.635419,-0.0105295,0.365423,0.302135,-0.0753551,-0.28003,-0.292768,0,12013,49.161,25.395,12484.4
2920984441,0.634769,2.223,91.5996,-0.000771684,-0.0180478,0.897058,-0.0620129,-0.588365,-0.000768334,0.405375,0.274963,-0.0799679,-0.263489,-0.282379,0,12013,49.169,25.671,12622.2
2921084770,0.634769,2.223,91.5996,-0.00177403,-0.0172476,0.896882,-0.0599594,-0.55209,-0.00177717,0.295719,0.176065,-0.106458,-0.248383,-0.272521,0,12013,49.169,25.671,12622.2
2921185147,0.634769,2.223,91.605,-0.00399388,-0.0179605,0.897035,-0.0566139,-0.52222,-0.00174164,0.284583,0.158395,0.106853,-0.233276,-0.265848,0,12013,49.169,25.671,12622.2
2921285580,0.634769,2.223,91.6089,-0.00691949,-0.0182286,0.897047,-0.054144,-0.480056,0.00107754,0.36306,0.201924,-0.101682,1.5,2.9,0,12013,49.169,25.671,12622.2
2921385948,0.634769,2.223,91.6046,-0.00848254,-0.0133861,0.896932,-0.0376863,-0.440863,0.000176054,0.319088,0.0305406,-0.088702,1.5,2.9,0,12013,49.169,25.671,12622.2
2921486305,0.634769,2.223,91.6042,0.00459329,-0.0129973,0.89692,-0.0414044,-0.421414,0.00228262,0.152078,0.147844,0.12691,1.5,2.9,0,12013,49.169,25.671,12622.2
2921586654,0.634769,2.223,91.6076,0.0128502,-0.0190507,0.896892,-0.0480986,-0.384385,-0.00321704,0.288542,0.356542,-0.15104,1.5,2.9,0,12013,49.169,25.671,12622.2
2921687006,0.634769,2.223,91.6118,0.0187749,-0.0237386,0.896949,-0.0601761,-0.340327,0.00490301,0.310713,0.389742,-0.0232805,1.5,2.9,0,12013,49.169,25.671,12622.2
2921787921,0.634769,2.223,91.606,0.0208854,-0.0266717,0.896754,-0.0671661,-0.285005,-0.00469049,0.408848,0.378481,0.00859296,1.5,2.9,0,12013,49.169,25.671,12622.2
2921889682,0.634769,2.223,91.5949,0.0200472,-0.0282819,0.896748,-0.0760445,-0.233254,-0.00949256,0.394856,0.362427,0.121642,1.5,2.9,0,12013,49.169,25.671,12622.2
2921990035,0.634769,2.223,91.5906,0.0162492,-0.0284093,0.896849,-0.0911476,-0.180945,-0.0145797,0.386616,0.438619,-0.0843829,1.5,2.9,0,12013,49.15,25.714,12638.4
2922090402,0.634769,2.223,91.5849,0.0115382,-0.0281698,0.897066,-0.103797,-0.13478,-0.00658378,0.315533,0.365483,0.0410549,1.5,2.9,0,12013,49.15,25.714,12638.4
2922190785,0.634769,2.223,91.5822,0.00698419,-0.0265709,0.896912,-0.109897,-0.0886964,0.000394878,0.32708,0.31047,-0.0365303,1.5,2.9,0,12013,49.15,25.714,12638.4
2922291213,0.634769,2.223,91.5832,0.00196584,-0.0229976,0.896835,-0.111395,-0.0456661,0.00271338,0.335785,0.278133,0.0765785,0.3,4.7,0,12013,49.15,25.714,12638.4
2922391538,0.634769,2.223,91.5872,0.00101426,-0.0200758,0.895724,-0.111437,-0.0130501,0.00109723,0.231479,0.196601,-0.0159887,0.3,4.7,0,12013,49.15,25.714,12638.4
2922491900,0.634769,2.223,91.5891,0.133676,-0.0195056,0.893593,-0.120248,0.0200998,0.0418789,0.213202,0.459358,0.324871,0.3,4.7,0,12013,49.15,25.714,12638.4
2922592250,0.634769,2.223,91.5903,0.282998,-0.0214705,0.893832,-0.257521,0.159321,0.00694696,0.222289,2.18822,-0.0434108,0.3,4.7,0,12013,49.15,25.714,12638.4
2922692520,0.634769,2.223,91.5884,0.376037,-0.0238855,0.893429,-0.513177,0.394077,-0.0318991,0.239873,3.30556,1.18507,0.3,4.7,0,12013,49.15,25.714,12638.4
2922793966,0.634769,2.223,91.5858,0.423381,-0.0255154,0.893187,-0.828505,0.685887,-0.0304887,0.307582,3.8822,1.70694,0.3,4.7,0,12013,49.15,25.714,12638.4
2922894334,0.634769,2.223,91.5832,0.437146,-0.0263246,0.893402,-1.17555,1.01476,-0.0325,0.361732,4.2049,1.9604,0.3,4.7,0,12013,49.15,25.714,12638.4
2922994696,0.634769,2.223,91.5676,0.434733,-0.0269754,0.893544,-1.52823,1.33619,-0.0228507,0.302627,4.19692,2.03573,0.3,4.7,0,12013,49.129,26.132,12838.4
2923095044,0.634769,2.223,91.5512,0.427077,-0.0280162,0.893517,-1.87234,1.65057,-0.0202325,0.29537,4.13353,1.97678,0.3,4.7,0,12013,49.129,26.132,12838.4
2923195581,0.634769,2.223,91.5464,0.414992,-0.0289237,0.893355,-2.21423,1.9581,-0.00792529,0.250121,4.04467,1.87191,0.3,4.7,0,12013,49.129,26.132,12838.4
2923297616,0.634769,2.223,91.5408,0.368605,-0.028412,0.89343,-2.53133,2.25513,-0.0073279,0.321391,3.72637,1.6917,-4.7,-0.4,0,12013,49.129,26.132,12838.4
2923397980,0.634769,2.223,91.5358,0.302657,-0.0174151,0.893658,-2.80018,2.50855,0.0102228,0.255006,3.15398,1.43209,-4.7,-0.4,0,12013,49.129,26.132,12838.4
2923498360,0.634769,2.223,91.5293,0.102314,0.118704,0.893073,-3.0157,2.71161,0.0857524,0.132802,2.4182,1.25525,-4.7,-0.4,0,12013,49.129,26.132,12838.4
2923598721,0.634769,2.223,91.5442,-0.15322,0.242452,0.868691,-3.13435,2.58988,0.13103,-1.80894,-0.347419,0.528967,-4.7,-0.4,0,12013,49.129,26.132,12838.4
2923699054,0.634769,2.223,91.563,-0.299082,0.300767,0.850579,-3.11434,2.24044,0.069956,-2.6498,-2.61872,0.358265,-4.7,-0.4,0,12013,49.129,26.132,12838.4
2923799350,0.634769,2.223,91.5751,-0.362376,0.322437,0.844259,-3.03926,1.79721,-0.00288344,-2.72909,-3.19861,1.89777,-4.7,-0.4,0,12013,49.129,26.132,12838.4
2923899703,0.634769,2.223,91.5887,-0.376752,0.321742,0.848149,-2.92938,1.27985,-0.00521909,-2.89504,-3.66326,2.39404,-4.7,-0.4,0,12013,49.129,26.132,12838.4
2924000064,0.634769,2.223,91.6143,-0.367428,0.317654,0.853479,-2.80132,0.763943,0.00302685,-2.78878,-3.7329,2.39241,-4.7,-0.4,0,12013,49.152,25.748,12655.7
2924100400,0.634769,2.223,91.6422,-0.349843,0.317014,0.856925,-2.67842,0.284841,0.00403531,-2.70268,-3.59915,1.91507,-4.7,-0.4,0,12013,49.152,25.748,12655.7
2924200631,0.634769,2.223,91.6454,-0.324528,0.316506,0.860533,-2.56661,-0.191316,-0.00571357,-2.62307,-3.34207,2.0905,-4.7,-0.4,0,12013,49.152,25.748,12655.7
2924300936,0.634768,2.223,91.6422,-0.296356,0.321571,0.862181,-2.47244,-0.642319,-0.0134518,-2.59733,-3.10738,1.63363,-0.3,-3.9,0,12013,49.152,25.748,12655.7
2924401275,0.634768,2.223,91.6517,-0.27358,0.309782,0.865282,-2.40923,-1.06935,-0.0284425,-2.69896,-2.77008,1.31266,-0.3,-3.9,0,12013,49.152,25.748,12655.7
2924501611,0.634768,2.223,91.653,-0.32158,0.112271,0.882792,-2.35997,-1.51693,0.0222278,-2.49638,-2.41412,2.64698,-0.3,-3.9,0,12013,49.152,25.748,12655.7
2924601946,0.634768,2.223,91.6492,-0.361394,-0.0830866,0.912583,-2.06209,-1.76515,0.0780746,0.345084,-3.57751,0.738714,-0.3,-3.9,0,12013,49.152,25.748,12655.7
2924702285,0.634768,2.223,91.6453,-0.382216,-0.186701,0.936836,-1.66971,-1.85378,-0.0189973,1.86715,-3.45121,0.606812,-0.3,-3.9,0,12013,49.152,25.748,12655.7
2924802630,0.634768,2.223,91.6381,-0.385385,-0.229486,0.947928,-1.19155,-1.88688,-0.0719785,2.60023,-3.46451,1.72412,-0.3,-3.9,0,12013,49.152,25.748,12655.7
2924902985,0.634768,2.223,91.6295,-0.379205,-0.234493,0.950489,-0.674848,-1.89577,-0.0868292,2.85471,-3.42722,2.0858,-0.3,-3.9,0,12013,49.152,25.748,12655.7
