timestamp,lat,log,alt,roll,pitch,yaw,vel_x,vel_y,vel_z,acc_x,acc_y,acc_z,act_vx,act_vy,act_yr,capacity,vol,cur,power
146931672,0.634769,2.223,92.6586,-0.0317896,-0.0251382,0.937166,-0.014191,-0.0569314,0.00329213,0.0984843,0.172286,-0.00923259,4.8,-2.6,0,12275,48.89,23.382,11431.5
147032336,0.634769,2.223,92.6497,-0.0320583,-0.0284866,0.937164,-0.00440917,-0.0581224,0.00759112,0.136908,-0.0401223,-0.108181,4.8,-2.6,0,12275,48.89,23.382,11431.5
147132715,0.634769,2.223,92.6554,-0.0354223,-0.0369837,0.936119,-0.0086158,-0.043353,-0.00795703,0.18779,0.113921,-0.251796,4.8,-2.6,0,12275,48.89,23.382,11431.5
147233070,0.634769,2.223,92.6496,-0.0881797,-0.138002,0.940416,0.0123628,-0.0165736,0.0147449,0.542896,-0.113615,0.34787,4.8,-2.6,0,12275,48.89,23.382,11431.5
147333430,0.634769,2.223,92.6431,-0.161775,-0.258527,0.956706,0.174064,0.0733813,-0.02609,1.85568,-0.771438,0.076074,4.8,-2.6,0,12275,48.89,23.382,11431.5
147433785,0.634769,2.223,92.6354,-0.20316,-0.324634,0.969044,0.448215,0.213159,-0.0530795,2.82723,-1.30612,0.870424,4.8,-2.6,0,12275,48.89,23.382,11431.5
147534130,0.634769,2.223,92.643,-0.230188,-0.363581,0.97852,0.805307,0.382898,-0.0482584,3.36006,-1.70222,1.32338,4.8,-2.6,0,12275,48.89,23.382,11431.5
147634512,0.634769,2.223,92.6613,-0.237479,-0.373037,0.981034,1.18486,0.565648,-0.0427166,3.24801,-1.65644,1.88385,4.8,-2.6,0,12275,48.89,23.382,11431.5
147734816,0.634769,2.223,92.6656,-0.232405,-0.368415,0.980985,1.56166,0.749351,-0.0234903,3.28495,-1.63821,1.77354,4.8,-2.6,0,12275,48.89,23.382,11431.5
147835046,0.634769,2.223,92.6444,-0.22594,-0.360204,0.980689,1.91839,0.925173,-0.0196167,3.2871,-1.6425,1.23048,4.8,-2.6,0,12275,48.89,23.382,11431.5
147935402,0.634769,2.223,92.6418,-0.221441,-0.351767,0.980407,2.27144,1.09762,-0.0124003,3.12089,-1.59179,1.66283,3.1,-1.2,0,12275,48.87,23.591,11528.9
148035778,0.634769,2.223,92.661,-0.200522,-0.32098,0.973635,2.61168,1.26596,0.00533538,3.1789,-1.64878,1.07246,3.1,-1.2,0,12275,48.87,23.591,11528.9
148136181,0.634769,2.223,92.6547,-0.120816,-0.233529,0.950895,2.88853,1.40881,0.0438367,2.28092,-1.01407,1.17617,3.1,-1.2,0,12275,48.87,23.591,11528.9
148236541,0.634769,2.223,92.6536,-0.0475849,-0.147064,0.940436,3.01769,1.50803,0.0432644,1.38809,-0.267377,-0.0170357,3.1,-1.2,0,12275,48.87,23.591,11528.9
148336879,0.634769,2.223,92.6603,-0.00214591,-0.0846512,0.938548,3.04197,1.58219,0.0235694,0.620746,0.425042,0.0776616,3.1,-1.2,0,12275,48.87,23.591,11528.9
148437273,0.634769,2.223,92.6466,0.0123395,-0.0496109,0.939814,3.01755,1.62744,0.0127258,0.11721,0.565555,0.113403,3.1,-1.2,0,12275,48.87,23.591,11528.9
148537632,0.634769,2.223,92.6362,0.00969326,-0.0360678,0.940342,2.95959,1.6488,-0.0116391,-0.140395,0.73688,-0.256423,3.1,-1.2,0,12275,48.87,23.591,11528.9
148638003,0.63477,2.223,92.6196,-0.00111217,-0.0324479,0.939854,2.91143,1.66062,-0.0162291,-0.198993,0.517655,0.225004,3.1,-1.2,0,12275,48.87,23.591,11528.9
148738348,0.63477,2.223,92.6129,-0.00884246,-0.0316968,0.939944,2.86525,1.66747,-0.0188978,-0.16615,0.537891,-0.21401,3.1,-1.2,0,12275,48.87,23.591,11528.9
148838612,0.63477,2.223,92.6225,-0.0139273,-0.0371084,0.939983,2.8211,1.66105,-0.0257161,-0.1983,0.3891,0.0240285,3.1,-1.2,0,12275,48.87,23.591,11528.9
148939034,0.63477,2.223,92.629,-0.0182433,-0.0468894,0.940414,2.78696,1.65437,-0.0182354,-0.156103,0.278011,0.239652,-4.2,4.2,0,12272,48.822,24.777,12096.6
149039383,0.63477,2.223,92.6211,-0.0167594,-0.0385759,0.942336,2.76141,1.66137,-0.0160608,0.00922978,0.286708,0.00485639,-4.2,4.2,0,12272,48.822,24.777,12096.6
149139736,0.63477,2.223,92.6156,0.0892797,0.126012,0.946434,2.72779,1.65219,0.0425488,-0.41219,0.377324,0.362132,-4.2,4.2,0,12272,48.822,24.777,12096.6
149240091,0.63477,2.223,92.6469,0.208888,0.259343,0.96594,2.43604,1.54121,0.038078,-2.6092,1.90422,0.0766258,-4.2,4.2,0,12272,48.822,24.777,12096.6
149340448,0.63477,2.223,92.6935,0.292724,0.344013,0.988909,2.0023,1.41908,-0.0526919,-3.43298,2.81278,1.10473,-4.2,4.2,0,12272,48.822,24.777,12096.6
149440741,0.63477,2.223,92.6958,0.337493,0.387684,1.00541,1.45221,1.26981,-0.0976213,-3.98547,3.31118,2.37753,-4.2,4.2,0,12272,48.822,24.777,12096.6
149541122,0.63477,2.223,92.6796,0.34271,0.403463,1.01226,0.845846,1.11192,-0.122248,-4.1533,3.52474,2.82672,-4.2,4.2,0,12272,48.822,24.777,12096.6
149641417,0.63477,2.223,92.6572,0.318276,0.405567,1.01116,0.233879,0.949677,-0.138309,-4.05995,3.42281,3.26864,-4.2,4.2,0,12272,48.822,24.777,12096.6
149741759,0.63477,2.223,92.6199,0.28664,0.398726,1.00706,-0.37914,0.742245,-0.128108,-4.22095,3.04728,3.54025,-4.2,4.2,0,12272,48.822,24.777,12096.6
149842121,0.63477,2.223,92.5722,0.264536,0.37556,0.997579,-0.954494,0.523302,-0.0831427,-4.13573,2.82078,3.10934,-4.2,4.2,0,12272,48.822,24.777,12096.6
149942532,0.63477,2.223,92.5407,0.256564,0.347859,0.988013,-1.4846,0.324359,-0.0480244,-3.84193,2.62256,2.74536,-2.3,4.9,0,12272,48.747,26.495,12915.5
150042892,0.63477,2.223,92.5054,0.261125,0.312094,0.981077,-1.99166,0.15414,-0.00883326,-3.53927,2.53859,2.58815,-2.3,4.9,0,12272,48.747,26.495,12915.5
150143253,0.63477,2.223,92.5182,0.308849,0.216313,0.977853,-2.45609,0.0451497,0.0312835,-2.86455,2.75059,1.80399,-2.3,4.9,0,12272,48.747,26.495,12915.5
150243622,0.63477,2.223,92.5442,0.347473,0.141542,0.966306,-2.88705,0.0691002,0.0446946,-2.0024,3.44588,0.789567,-2.3,4.9,0,12272,48.747,26.495,12915.5
150343986,0.63477,2.223,92.57,0.374767,0.0910267,0.952778,-3.29529,0.172341,0.0386456,-1.2763,3.51611,1.3501,-2.3,4.9,0,12272,48.747,26.495,12915.5
150444377,0.63477,2.223,92.6039,0.3673,0.0603866,0.940841,-3.68823,0.339674,0.0515701,-0.765582,3.7248,1.3129,-2.3,4.9,0,12272,48.747,26.495,12915.5
150544732,0.634769,2.223,92.6507,0.317055,0.0414793,0.933911,-4.03621,0.520251,0.0631395,-0.464384,3.46683,1.06775,-2.3,4.9,0,12272,48.747,26.495,12915.5
150645087,0.634769,2.223,92.6898,0.262313,0.0328295,0.932054,-4.30755,0.673609,0.0629847,-0.343666,2.84929,0.353558,-2.3,4.9,0,12272,48.747,26.495,12915.5
150745434,0.634769,2.223,92.7328,0.207274,0.0293687,0.931689,-4.5182,0.807015,0.0632566,-0.204804,2.24728,0.153799,-2.3,4.9,0,12272,48.747,26.495,12915.5
150845787,0.634769,2.223,92.7841,0.165736,0.0307202,0.934074,-4.67182,0.910673,0.0394491,-0.184258,1.70056,-0.312244,-2.3,4.9,0,12272,48.747,26.495,12915.5
150946188,0.634769,2.223,92.8102,0.13605,0.0302368,0.93567,-4.79611,0.988584,-0.00152098,-0.223066,1.3458,-0.246461,-1.4,-3.7,0,12272,48.892,23.923,11696.4
151046559,0.634769,2.223,92.842,0.0929226,0.0239081,0.937964,-4.89599,1.0472,-0.0176597,-0.240597,1.02351,-0.248149,-1.4,-3.7,0,12272,48.892,23.923,11696.4
151146904,0.634769,2.223,92.878,-0.132685,-0.0122925,0.938735,-4.95604,1.09716,0.00814938,-0.0906358,0.330608,0.367029,-1.4,-3.7,0,12272,48.892,23.923,11696.4
151247214,0.634769,2.223,92.9082,-0.34207,-0.0496009,0.949096,-4.73773,1.01211,0.00292458,0.455244,-2.78792,-0.363036,-1.4,-3.7,0,12272,48.892,23.923,11696.4
151347493,0.634769,2.223,92.9224,-0.459468,-0.0692827,0.96156,-4.37362,0.86326,-0.113989,0.751827,-4.0171,0.894602,-1.4,-3.7,0,12272,48.892,23.923,11696.4
151447764,0.634769,2.223,92.8967,-0.517474,-0.0767101,0.970063,-3.9018,0.661206,-0.166795,0.810734,-4.59648,2.28589,-1.4,-3.7,0,12272,48.892,23.923,11696.4
151548065,0.634769,2.223,92.8785,-0.534955,-0.0801228,0.97553,-3.37417,0.419614,-0.19914,0.747716,-5.0604,2.66812,-1.4,-3.7,0,12272,48.892,23.923,11696.4
151648341,0.634769,2.223,92.8634,-0.528658,-0.0749296,0.974468,-2.79617,0.174351,-0.191226,0.988273,-5.09683,3.18996,-1.4,-3.7,0,12272,48.892,23.923,11696.4
151748632,0.634769,2.223,92.8337,-0.509708,-0.0604068,0.967916,-2.2436,-0.075882,-0.184921,0.897079,-4.99248,2.96184,-1.4,-3.7,0,12272,48.892,23.923,11696.4
151849951,0.634769,2.223,92.8104,-0.488394,-0.0421909,0.960393,-1.7149,-0.333931,-0.172505,0.700579,-4.59765,3.05274,-1.4,-3.7,0,12272,48.892,23.923,11696.4
151955242,0.634769,2.223,92.7887,-0.461187,-0.0175101,0.950389,-1.1451,-0.638419,-0.147211,0.4491,-4.26516,2.61432,-2.1,1.2,0,12272,48.892,23.923,11696.4
152055592,0.634769,2.223,92.7951,-0.419107,0.00440665,0.943078,-0.721998,-0.901458,-0.12434,0.259452,-4.24871,2.00216,-2.1,1.2,0,12231,48.625,29.717,14449.9
152155958,0.634769,2.223,92.7923,-0.196903,0.0741445,0.943715,-0.345865,-1.15647,-0.0509841,-0.00225967,-3.60949,1.41266,-2.1,1.2,0,12231,48.625,29.717,14449.9
152256417,0.634769,2.223,92.7951,0.118151,0.141545,0.956189,-0.304568,-1.28547,-0.0400275,-1.03179,-0.211257,-0.527851,-2.1,1.2,0,12231,48.625,29.717,14449.9
152356776,0.634769,2.223,92.7996,0.284399,0.163124,0.964077,-0.557066,-1.27281,-0.109983,-1.43225,2.63379,0.180031,-2.1,1.2,0,12231,48.625,29.717,14449.9
152457123,0.634769,2.223,92.7914,0.330393,0.159865,0.961302,-0.926108,-1.20407,-0.126091,-1.4798,3.4467,1.42859,-2.1,1.2,0,12231,48.625,29.717,14449.9
152557473,0.634769,2.223,92.7737,0.300584,0.13993,0.952471,-1.31658,-1.11442,-0.103781,-1.43858,3.53517,1.57342,-2.1,1.2,0,12231,48.625,29.717,14449.9
152657789,0.634769,2.223,92.7528,0.23852,0.115066,0.944553,-1.65339,-1.03358,-0.0891741,-1.17085,2.95757,1.32793,-2.1,1.2,0,12231,48.625,29.717,14449.9
152758047,0.634769,2.223,92.7203,0.165143,0.0908654,0.938632,-1.91152,-0.971327,-0.0716729,-0.853368,2.26681,0.673574,-2.1,1.2,0,12231,48.625,29.717,14449.9
152858400,0.634769,2.223,92.6979,0.10456,0.0721888,0.936214,-2.09232,-0.931226,-0.0648852,-0.583817,1.54448,0.214316,-2.1,1.2,0,12231,48.625,29.717,14449.9
152958954,0.634769,2.223,92.6969,0.0617982,0.0573593,0.935716,-2.22583,-0.911258,-0.0565817,-0.456438,0.993225,0.00726933,1,-2.8,0,12231,48.625,29.717,14449.9
153059290,0.634769,2.223,92.702,0.0109811,0.0159303,0.932415,-2.32839,-0.900569,-0.0467973,-0.388765,0.68289,0.485339,1,-2.8,0,12184,48.644,27.904,13573.6
153159682,0.634768,2.223,92.7272,-0.143935,-0.123255,0.942302,-2.34028,-0.865628,0.011942,0.585991,-0.140256,0.554683,1,-2.8,0,12184,48.644,27.904,13573.6
153260071,0.634768,2.223,92.7467,-0.266957,-0.21487,0.966116,-2.11623,-0.817358,-0.00569462,1.92734,-1.88257,0.201087,1,-2.8,0,12184,48.644,27.904,13573.6
153360421,0.634768,2.223,92.7724,-0.329628,-0.261353,0.984163,-1.79169,-0.763428,-0.0590887,2.48316,-2.49596,1.08619,1,-2.8,0,12184,48.644,27.904,13573.6
153460716,0.634768,2.223,92.7753,-0.349868,-0.276274,0.992372,-1.38574,-0.698864,-0.0688217,2.84836,-2.91101,1.51717,1,-2.8,0,12184,48.644,27.904,13573.6
153561076,0.634768,2.223,92.7751,-0.349506,-0.271144,0.992615,-0.959739,-0.630583,-0.0624796,2.87934,-2.93224,1.67768,1,-2.8,0,12184,48.644,27.904,13573.6
153661437,0.634768,2.223,92.8137,-0.342712,-0.258298,0.990806,-0.552406,-0.567249,-0.052116,2.72792,-2.79038,1.60529,1,-2.8,0,12184,48.644,27.904,13573.6
153761830,0.634768,2.223,92.8442,-0.341205,-0.244964,0.987852,-0.171273,-0.506884,-0.0557945,2.66312,-2.62959,1.21516,1,-2.8,0,12184,48.644,27.904,13573.6
153862198,0.634768,2.223,92.8536,-0.34081,-0.228756,0.983641,0.20152,-0.453286,-0.0609593,2.48504,-2.53321,1.23711,1,-2.8,0,12184,48.644,27.904,13573.6
153962611,0.634768,2.223,92.867,-0.34328,-0.209793,0.979962,0.56774,-0.425289,-0.0697315,2.23884,-2.6226,1.07918,-3.2,1.2,0,12184,48.644,27.904,13573.6
154062962,0.634768,2.223,92.8659,-0.333036,-0.180312,0.972777,0.932695,-0.424133,-0.0809731,1.96808,-2.65417,1.28821,-3.2,1.2,0,12184,48.392,29.908,14473.1
154163313,0.634768,2.223,92.8422,-0.166063,-0.0134228,0.946241,1.28617,-0.442697,-0.0522164,1.56957,-2.46849,1.38494,-3.2,1.2,0,12184,48.392,29.908,14473.1
154263685,0.634768,2.223,92.8221,0.0870383,0.198278,0.950243,1.30488,-0.524116,-0.0278262,-0.993213,-0.0284848,-0.416092,-3.2,1.2,0,12184,48.392,29.908,14473.1
154364087,0.634768,2.223,92.7854,0.240362,0.314109,0.97382,0.992763,-0.607553,-0.106297,-2.58715,2.26846,0.585582,-3.2,1.2,0,12184,48.392,29.908,14473.1
154464427,0.634768,2.223,92.7326,0.315544,0.369394,0.989273,0.520519,-0.714488,-0.150821,-3.30259,3.05435,2.14031,-3.2,1.2,0,12184,48.392,29.908,14473.1
154565618,0.634768,2.223,92.7247,0.335216,0.388871,0.992359,-0.0476342,-0.819844,-0.164666,-3.65805,3.4885,2.83932,-3.2,1.2,0,12184,48.392,29.908,14473.1
154670321,0.634768,2.223,92.7303,0.317788,0.393304,0.987662,-0.647744,-0.928598,-0.15619,-3.63727,3.53541,3.19952,-3.2,1.2,0,12184,48.392,29.908,14473.1
154770695,0.634768,2.223,92.742,0.282535,0.382235,0.97736,-1.22896,-1.05994,-0.131279,-3.66778,3.2872,3.10182,-3.2,1.2,0,12184,48.392,29.908,14473.1
154871103,0.634768,2.223,92.7806,0.215538,0.329698,0.958765,-1.74874,-1.1923,-0.113479,-3.42434,2.88308,2.3543,-3.2,1.2,0,12184,48.392,29.908,14473.1
154971473,0.634768,2.223,92.7753,0.148966,0.27207,0.946198,-2.16643,-1.30763,-0.0870991,-2.91255,2.2961,1.33976,1.4,-0.3,0,12184,48.392,29.908,14473.1
155071845,0.634768,2.223,92.77,0.0907927,0.201216,0.937054,-2.48904,-1.40884,-0.0790682,-2.21163,1.66889,1.07091,1.4,-0.3,0,12184,48.497,28.278,13714
155172195,0.634768,2.223,92.7739,-0.000796748,-0.0415807,0.931353,-2.72088,-1.47804,-0.0118372,-1.38325,1.16741,1.01237,1.4,-0.3,0,12184,48.497,28.278,13714
155272539,0.634768,2.223,92.7743,-0.0965033,-0.272959,0.950247,-2.66978,-1.36743,0.0159509,1.85097,-0.10227,-0.0282238,1.4,-0.3,0,12184,48.497,28.278,13714
155372913,0.634768,2.223,92.7614,-0.149528,-0.386932,0.970341,-2.4419,-1.15004,-0.0702036,3.47457,-0.844869,0.501621,1.4,-0.3,0,12184,48.497,28.278,13714
155473266,0.634768,2.223,92.7779,-0.174184,-0.440215,0.983709,-2.11728,-0.870883,-0.100898,4.07682,-1.0387,1.89491,1.4,-0.3,0,12184,48.497,28.278,13714
155573602,0.634768,2.223,92.8464,-0.177414,-0.454931,0.989171,-1.72972,-0.541507,-0.103709,4.52343,-1.13219,2.18186,1.4,-0.3,0,12184,48.497,28.278,13714
155673959,0.634768,2.223,92.8783,-0.175489,-0.441494,0.988416,-1.35175,-0.216746,-0.105289,4.45788,-1.10835,1.90978,1.4,-0.3,0,12184,48.497,28.278,13714
155774272,0.634768,2.223,92.8782,-0.181829,-0.410811,0.984662,-0.977459,0.108477,-0.0968321,4.38978,-1.07504,1.77383,1.4,-0.3,0,12184,48.497,28.278,13714
155874596,0.634768,2.223,92.865,-0.178758,-0.35429,0.976126,-0.545487,0.444482,-0.0846254,3.75989,-1.12613,1.75038,1.4,-0.3,0,12184,48.497,28.278,13714
155976666,0.634768,2.223,92.8361,-0.169537,-0.286447,0.965979,-0.241654,0.652403,-0.0948102,3.07727,-1.08498,1.03506,-3.6,-4.5,0,12184,48.497,28.278,13714
156079042,0.634768,2.223,92.7927,-0.165623,-0.189057,0.952878,0.0206211,0.812465,-0.0904703,2.35957,-0.929397,1.5844,-3.6,-4.5,0,12184,48.536,28.246,13709.5
156179367,0.634768,2.223,92.7461,-0.213165,0.0341111,0.93807,0.238302,0.874387,0.00679659,1.10181,-1.27125,0.0291795,-3.6,-4.5,0,12184,48.536,28.246,13709.5
156279670,0.634768,2.223,92.6959,-0.271738,0.207722,0.910708,0.316549,0.685052,-0.0756757,-1.56342,-1.92863,-0.278819,-3.6,-4.5,0,12184,48.536,28.246,13709.5
156380076,0.634768,2.223,92.6439,-0.314129,0.298387,0.887795,0.365713,0.338328,-0.121701,-2.51565,-2.07108,1.76932,-3.6,-4.5,0,12184,48.536,28.246,13709.5
156480434,0.634768,2.223,92.5965,-0.334425,0.339628,0.874348,0.400073,-0.126981,-0.120563,-3.16732,-2.4029,2.67334,-3.6,-4.5,0,12184,48.536,28.246,13709.5
156580794,0.634768,2.223,92.5606,-0.341278,0.344703,0.871014,0.420137,-0.632629,-0.10632,-3.51592,-2.5568,2.60996,-3.6,-4.5,0,12184,48.536,28.246,13709.5
156681143,0.634768,2.223,92.5434,-0.348234,0.330395,0.874086,0.448773,-1.15028,-0.0795374,-3.40506,-2.70219,2.70575,-3.6,-4.5,0,12184,48.536,28.246,13709.5
156781479,0.634768,2.223,92.548,-0.352334,0.309967,0.879535,0.48636,-1.65638,-0.0421535,-3.30466,-2.70101,2.52649,-3.6,-4.5,0,12184,48.536,28.246,13709.5
156881824,0.634768,2.223,92.566,-0.352816,0.290336,0.885415,0.534817,-2.12924,-0.0144233,-2.97515,-2.5387,2.25902,-3.6,-4.5,0,12184,48.536,28.246,13709.5
156986083,0.634768,2.223,92.5932,-0.351798,0.272017,0.89045,0.600448,-2.58014,0.012514,-2.67545,-2.51494,2.06984,1.9,0.1,0,12184,48.536,28.246,13709.5
157086449,0.634768,2.223,92.6216,-0.340433,0.245394,0.897321,0.682396,-2.99882,0.0420619,-2.43861,-2.71885,1.35945,1.9,0.1,0,12143,48.437,28.906,14001.2
157186807,0.634768,2.223,92.6437,-0.196792,0.0755766,0.926388,0.772708,-3.39602,0.104886,-2.00003,-2.50043,1.52671,1.9,0.1,0,12143,48.437,28.906,14001.2
157287152,0.634768,2.223,92.69,0.0256291,-0.172951,0.930286,0.845095,-3.46257,0.175738,0.519766,-0.502762,0.0956486,1.9,0.1,0,12143,48.437,28.906,14001.2
157387448,0.634768,2.223,92.6985,0.17415,-0.321646,0.905447,0.85555,-3.19256,0.160343,2.8035,1.91647,-0.206944,1.9,0.1,0,12143,48.437,28.906,14001.2
157487748,0.634768,2.223,92.726,0.239828,-0.379526,0.890805,0.838402,-2.80214,0.00974842,3.57476,2.7217,0.320417,1.9,0.1,0,12143,48.437,28.906,14001.2
157588125,0.634768,2.223,92.7392,0.26769,-0.394359,0.887666,0.822702,-2.32633,-0.0479831,3.64682,2.78807,1.88997,1.9,0.1,0,12143,48.437,28.906,14001.2
157688493,0.634768,2.223,92.7032,0.272259,-0.387094,0.892324,0.79065,-1.81326,-0.0907186,3.75294,3.10944,1.76376,1.9,0.1,0,12143,48.437,28.906,14001.2
157788808,0.634768,2.223,92.6466,0.266311,-0.378177,0.897181,0.748209,-1.30218,-0.120009,3.62916,3.05827,1.95916,1.9,0.1,0,12143,48.437,28.906,14001.2
157889179,0.634768,2.223,92.6178,0.249922,-0.382587,0.899688,0.708505,-0.775737,-0.0992117,3.52642,2.9144,2.46153,1.9,0.1,0,12143,48.437,28.906,14001.2
157989588,0.634768,2.223,92.6281,0.215091,-0.367195,0.908095,0.68265,-0.263442,-0.109237,3.50179,2.77867,2.33869,-3.9,4.2,0,12143,48.437,28.906,14001.2
158089962,0.634768,2.223,92.6234,0.163199,-0.306325,0.924888,0.67683,0.225476,-0.0673181,3.40946,2.50006,1.63236,-3.9,4.2,0,12143,48.437,28.906,14001.2
158190347,0.634768,2.223,92.6387,0.177171,-0.080144,0.933507,0.670496,0.628038,0.0468835,2.47057,1.89983,2.43934,-3.9,4.2,0,12143,48.455,29.006,14054.9
158290680,0.634768,2.223,92.6506,0.224105,0.177641,0.956064,0.458974,0.777882,0.0796276,-0.605399,2.40131,0.343089,-3.9,4.2,0,12143,48.455,29.006,14054.9
158391042,0.634768,2.223,92.6451,0.255224,0.313352,0.983324,0.0897664,0.739683,-0.0201247,-2.7361,2.59492,0.609684,-3.9,4.2,0,12143,48.455,29.006,14054.9
158491395,0.634768,2.223,92.6268,0.275177,0.374502,0.999806,-0.372452,0.633227,-0.0723393,-3.45675,2.71435,1.93876,-3.9,4.2,0,12143,48.455,29.006,14054.9
158591739,0.634768,2.223,92.6074,0.284938,0.390537,1.00706,-0.890521,0.481323,-0.0900224,-3.93241,2.84448,2.3951,-3.9,4.2,0,12143,48.455,29.006,14054.9
158692092,0.634768,2.223,92.6091,0.287291,0.383668,1.00653,-1.42257,0.329792,-0.0843009,-3.78707,2.81767,2.70709,-3.9,4.2,0,12143,48.455,29.006,14054.9
158792451,0.634768,2.223,92.5861,0.285126,0.367885,1.00339,-1.95074,0.184017,-0.0567802,-3.68199,2.80268,2.68303,-3.9,4.2,0,12143,48.455,29.006,14054.9
158892818,0.634768,2.223,92.5814,0.28374,0.352749,1.0006,-2.45723,0.0494643,-0.0381247,-3.4791,2.79911,2.52777,-3.9,4.2,0,12143,48.455,29.006,14054.9
158993241,0.634768,2.223,92.5639,0.278844,0.337669,0.996975,-2.93832,-0.078292,-0.0227919,-3.26054,2.73038,2.33277,2.7,3.4,0,12143,48.455,29.006,14054.9
159093590,0.634768,2.223,92.5609,0.267609,0.315665,0.990678,-3.49201,-0.220409,-0.0160654,-3.23508,2.71031,1.7856,2.7,3.4,0,12143,48.455,29.006,14054.9
159193889,0.634768,2.223,92.5897,0.205721,0.132237,0.970712,-3.91138,-0.302542,0.0658079,-2.39101,2.45398,1.83799,2.7,3.4,0,12143,48.443,30.795,14918
159294230,0.634768,2.223,92.6158,0.0999073,-0.167563,0.947688,-4.04419,-0.194122,0.12055,0.769166,1.46842,-0.493597,2.7,3.4,0,12143,48.443,30.795,14918
159394592,0.634768,2.223,92.6521,0.0309404,-0.353414,0.938871,-3.92168,0.0598143,0.0451001,3.09946,0.383324,0.220616,2.7,3.4,0,12143,48.443,30.795,14918
159494947,0.634768,2.223,92.6737,-0.000430013,-0.451734,0.934706,-3.67633,0.40744,0.00306922,4.19062,0.000928958,1.54683,2.7,3.4,0,12143,48.443,30.795,14918
159595280,0.634768,2.223,92.7028,-0.0117021,-0.489712,0.929435,-3.36588,0.812259,-0.00574325,4.66628,-0.0610875,2.14949,2.7,3.4,0,12143,48.443,30.795,14918
159695650,0.634768,2.223,92.7431,-0.0105373,-0.494285,0.924182,-3.02186,1.22753,0.0137965,4.89245,-0.199206,2.09017,2.7,3.4,0,12143,48.443,30.795,14918
159795998,0.634768,2.223,92.7526,0.000787975,-0.481284,0.919046,-2.68556,1.64136,0.00148046,4.81603,-0.144566,2.02353,2.7,3.4,0,12143,48.443,30.795,14918
159896373,0.634767,2.223,92.7646,0.0180144,-0.468476,0.915087,-2.3717,2.05156,-0.0118021,4.69814,0.0368769,1.89713,2.7,3.4,0,12143,48.443,30.795,14918
159996745,0.634767,2.223,92.7732,0.0373497,-0.447837,0.911518,-2.07162,2.45914,-0.0216619,4.48379,0.216114,1.9238,1.3,1.1,0,12143,48.443,30.795,14918
160097110,0.634767,2.223,92.7794,0.0375071,-0.391183,0.912477,-1.85985,2.77711,-0.0360703,4.21009,0.375352,1.48742,1.3,1.1,0,12143,48.443,30.795,14918
160197469,0.634767,2.223,92.7664,-0.128955,-0.239239,0.936666,-1.55276,3.18333,0.0706149,3.32776,-0.0919481,2.20039,1.3,1.1,0,12143,48.399,27.765,13438
160297818,0.634767,2.223,92.7716,-0.290792,-0.0596123,0.933005,-1.24927,3.19131,0.0927326,1.37659,-2.60662,-0.493133,1.3,1.1,0,12143,48.399,27.765,13438
160398176,0.634767,2.223,92.7303,-0.337699,0.0400443,0.919843,-0.990564,3.01235,-0.0709667,-0.158631,-3.15087,0.243618,1.3,1.1,0,12143,48.399,27.765,13438
160498540,0.634767,2.223,92.6976,-0.308959,0.082167,0.916477,-0.752333,2.75952,-0.106891,-0.871735,-3.1567,0.727711,1.3,1.1,0,12143,48.399,27.765,13438
160598892,0.634767,2.223,92.6915,-0.248178,0.0864878,0.920785,-0.556866,2.50577,-0.138532,-0.978337,-2.75896,0.716846,1.3,1.1,0,12143,48.399,27.765,13438
160699242,0.634767,2.223,92.6896,-0.176423,0.0709812,0.926563,-0.422924,2.28184,-0.131126,-1.02652,-1.99019,0.692032,1.3,1.1,0,12143,48.399,27.765,13438
160799726,0.634767,2.223,92.6592,-0.11271,0.0459835,0.93169,-0.329351,2.12487,-0.113915,-0.684087,-1.29216,0.993225,1.3,1.1,0,12143,48.399,27.765,13438
160900144,0.634767,2.223,92.659,-0.079221,0.0255289,0.935628,-0.277722,2.01999,-0.0748748,-0.519358,-0.758969,0.36739,1.3,1.1,0,12143,48.399,27.765,13438
161000610,0.634767,2.223,92.6399,-0.0597237,0.00699798,0.938356,-0.224567,1.93274,-0.0492771,-0.338945,-0.658939,0.277482,4.1,-0.1,0,12143,48.399,27.765,13438
161101023,0.634767,2.223,92.5975,-0.0518173,-0.0291261,0.938363,-0.188401,1.87438,-0.0361816,-0.141228,-0.356192,0.0273442,4.1,-0.1,0,12143,48.399,27.765,13438
161201437,0.634767,2.223,92.5659,-0.0956259,-0.167552,0.94666,-0.12707,1.8649,-0.000734776,0.765419,-0.437635,0.148964,4.1,-0.1,0,12143,48.282,31.851,15378.3
161302928,0.634767,2.223,92.5429,-0.13866,-0.281336,0.960084,0.0670948,1.93127,-0.0283458,1.79153,-1.0009,0.71328,4.1,-0.1,0,12143,48.282,31.851,15378.3
161403288,0.634767,2.223,92.5057,-0.167146,-0.351312,0.969772,0.35473,2.07188,-0.0184927,2.78845,-1.23862,1.66306,4.1,-0.1,0,12143,48.282,31.851,15378.3
161503650,0.634767,2.223,92.5028,-0.17858,-0.380659,0.973859,0.686384,2.24591,-0.00415471,3.17608,-1.32147,1.78785,4.1,-0.1,0,12143,48.282,31.851,15378.3
161604081,0.634767,2.223,92.4961,-0.174857,-0.374676,0.971288,1.04548,2.44385,0.0165867,3.54441,-1.50853,1.70779,4.1,-0.1,0,12143,48.282,31.851,15378.3
161704435,0.634767,2.223,92.5123,-0.150678,-0.333137,0.963291,1.37109,2.627,0.0475336,3.16866,-1.28729,1.57255,4.1,-0.1,0,12143,48.282,31.851,15378.3
161804783,0.634768,2.223,92.5285,-0.124922,-0.285892,0.955417,1.62783,2.77112,0.0747363,2.55842,-1.10296,0.970882,4.1,-0.1,0,12143,48.282,31.851,15378.3
161905131,0.634768,2.223,92.526,-0.100631,-0.244134,0.949794,1.82929,2.88513,0.0784046,2.09855,-0.840551,0.634867,4.1,-0.1,0,12143,48.282,31.851,15378.3
162005486,0.634768,2.223,92.514,-0.0787401,-0.204393,0.94581,1.98397,2.97637,0.0681208,1.70408,-0.642855,0.214899,-1.1,3.8,0,12143,48.282,31.851,15378.3
162105840,0.634768,2.223,92.5256,-0.0466314,-0.13543,0.941607,2.1091,3.05734,0.0796693,1.38752,-0.487944,0.354718,-1.1,3.8,0,12143,48.282,31.851,15378.3
162206197,0.634768,2.223,92.5415,0.0908695,0.0977846,0.938287,2.16095,3.08888,0.138003,0.246404,-0.0354728,0.404919,-1.1,3.8,0,12143,48.386,29.46,14254.5
162306592,0.634768,2.223,92.5612,0.218609,0.267046,0.966114,1.89307,2.99463,0.14027,-2.55532,1.79802,-0.0786613,-1.1,3.8,0,12143,48.386,29.46,14254.5
162406950,0.634768,2.223,92.5535,0.292139,0.347981,0.990941,1.47348,2.86491,0.0479191,-3.44647,2.61257,1.24336,-1.1,3.8,0,12143,48.386,29.46,14254.5
162507301,0.634768,2.223,92.5385,0.322287,0.38815,1.00681,0.937698,2.69061,0.0101888,-3.97612,2.88214,2.60731,-1.1,3.8,0,12143,48.386,29.46,14254.5
162607664,0.634768,2.223,92.5602,0.3231,0.39668,1.01238,0.353899,2.49153,0.0103934,-4.30185,3.06579,2.71192,-1.1,3.8,0,12143,48.386,29.46,14254.5
162708051,0.634768,2.223,92.5794,0.315247,0.388286,1.01073,-0.214585,2.29705,-0.0128568,-4.06565,2.86893,2.80556,-1.1,3.8,0,12143,48.386,29.46,14254.5
162808390,0.634768,2.223,92.5907,0.309119,0.372204,1.00647,-0.765428,2.12089,-0.025222,-3.89157,2.90649,2.45621,-1.1,3.8,0,12143,48.386,29.46,14254.5
162908752,0.634768,2.223,92.6057,0.306244,0.350871,1.00072,-1.30274,1.95672,-0.0455066,-3.67628,2.81782,2.3778,-1.1,3.8,0,12143,48.386,29.46,14254.5
163010121,0.634768,2.223,92.6175,0.287589,0.31568,0.990512,-1.82312,1.81602,-0.0490982,-3.56818,2.89683,1.92511,2.4,3.6,0,12143,48.386,29.46,14254.5
163113388,0.634768,2.223,92.6328,0.239213,0.239957,0.971751,-2.29236,1.70539,-0.0283152,-2.96059,2.56932,1.50187,2.4,3.6,0,12143,48.386,29.46,14254.5
163213764,0.634768,2.223,92.6515,0.170984,-0.0109173,0.948977,-2.65813,1.63859,0.0634284,-1.8978,2.05565,1.07853,2.4,3.6,0,12143,48.386,29.46,14254.5
163314134,0.634767,2.223,92.6864,0.095601,-0.277524,0.932849,-2.74125,1.78745,0.0479473,1.71266,1.29049,-1.22038,2.4,3.6,0,12143,48.407,27.377,13252.4
163414503,0.634767,2.223,92.6821,0.0586003,-0.423979,0.925592,-2.63191,2.08874,-0.0364309,3.43423,0.601948,0.742222,2.4,3.6,0,12143,48.407,27.377,13252.4
163514878,0.634767,2.223,92.6939,0.0381726,-0.477954,0.920235,-2.40369,2.49014,-0.0513617,4.43546,0.290506,2.05337,2.4,3.6,0,12143,48.407,27.377,13252.4
163615185,0.634767,2.223,92.7402,0.0256783,-0.43955,0.918933,-2.12146,2.92281,-0.0284549,4.57516,0.146844,2.33313,2.4,3.6,0,12143,48.407,27.377,13252.4
163716326,0.634767,2.223,92.7645,0.0208584,-0.359247,0.919494,-1.83822,3.34172,-0.0173745,3.84053,0.101438,0.990017,2.4,3.6,0,12143,48.407,27.377,13252.4
163817842,0.634767,2.223,92.7572,0.0211655,-0.270367,0.922814,-1.66142,3.6021,-0.0374331,3.01311,-0.0220189,0.324985,2.4,3.6,0,12143,48.407,27.377,13252.4
163918180,0.634767,2.223,92.7484,0.0200748,-0.199586,0.925786,-1.53248,3.79718,-0.0352318,2.08467,0.00782792,0.483837,2.4,3.6,0,12143,48.407,27.377,13252.4
164018586,0.634767,2.223,92.7533,0.0241713,-0.13941,0.928727,-1.43376,3.93589,-0.0318424,1.45233,-0.0280539,0.031289,4.2,3.2,0,12143,48.407,27.377,13252.4
164118914,0.634767,2.223,92.7706,0.0196046,-0.117396,0.929272,-1.3838,4.02589,-0.0375202,0.65989,0.0888683,0.486059,4.2,3.2,0,12143,48.407,27.377,13252.4
164219286,0.634767,2.223,92.7539,-0.00810128,-0.206699,0.93638,-1.30694,4.1181,-0.0265383,1.19963,-0.146563,0.0015519,4.2,3.2,0,12143,48.407,27.377,13252.4
164319655,0.634767,2.223,92.7522,-0.0298949,-0.280991,0.940705,-1.14335,4.28104,-0.0718189,2.15375,-0.423001,0.369849,4.2,3.2,0,12143,48.341,28.791,13917.9
164419987,0.634767,2.223,92.7389,-0.0355758,-0.312819,0.94062,-0.936619,4.47629,-0.111918,2.42995,-0.461601,1.06435,4.2,3.2,0,12143,48.341,28.791,13917.9
164520374,0.634767,2.223,92.7253,-0.0320704,-0.300099,0.939132,-0.703236,4.69074,-0.0766503,2.63822,-0.61563,1.37059,4.2,3.2,0,12143,48.341,28.791,13917.9
164620721,0.634767,2.223,92.7278,-0.0215512,-0.263296,0.936501,-0.499547,4.87161,-0.0727415,2.35685,-0.519348,0.645149,4.2,3.2,0,12143,48.341,28.791,13917.9
164721073,0.634767,2.223,92.7124,-0.00890985,-0.221633,0.935186,-0.339007,5.02492,-0.0562925,1.96213,-0.340217,0.460885,4.2,3.2,0,12143,48.341,28.791,13917.9
164821484,0.634767,2.223,92.7114,0.00616713,-0.179163,0.934939,-0.220454,5.15409,-0.0359854,1.55741,-0.168388,0.576116,4.2,3.2,0,12143,48.341,28.791,13917.9
164921840,0.634767,2.223,92.7182,0.0143293,-0.144575,0.93676,-0.128953,5.24421,-0.0305937,1.16109,-0.136375,0.247285,4.2,3.2,0,12143,48.341,28.791,13917.9
165022236,0.634767,2.223,92.7441,0.0228023,-0.119329,0.937393,-0.0811344,5.31705,-0.0238718,0.822562,0.0629748,0.167888,2.7,-3.2,0,12143,48.341,28.791,13917.9
165123101,0.634767,2.223,92.7641,-0.00526029,-0.093598,0.941744,-0.0575269,5.36812,-0.0343637,0.530529,0.159613,0.276688,2.7,-3.2,0,12143,48.341,28.791,13917.9
165223434,0.634767,2.223,92.7777,-0.184047,-0.0172088,0.94537,0.00420985,5.36365,0.00780744,0.179801,-0.838356,0.336705,2.7,-3.2,0,12143,48.341,28.791,13917.9
165323803,0.634767,2.223,92.8201,-0.332882,0.0458568,0.933477,0.181246,5.15214,0.00945579,-0.737124,-2.82486,0.137625,2.7,-3.2,0,12143,48.364,28.791,13924.5
165424213,0.634767,2.223,92.8155,-0.42393,0.0773992,0.919478,0.415468,4.83375,-0.0482714,-1.15007,-3.76528,1.11107,2.7,-3.2,0,12143,48.364,28.791,13924.5
165524558,0.634767,2.223,92.7681,-0.467674,0.0937326,0.908798,0.701675,4.43047,-0.0718657,-1.35422,-4.34037,1.97587,2.7,-3.2,0,12143,48.364,28.791,13924.5
165624942,0.634767,2.223,92.7317,-0.474408,0.0986656,0.90288,0.998723,3.99519,-0.0828825,-1.44982,-4.36455,2.44564,2.7,-3.2,0,12143,48.364,28.791,13924.5
165725315,0.634767,2.223,92.7023,-0.455565,0.0929823,0.901843,1.29198,3.55708,-0.0856502,-1.4052,-4.29563,2.3413,2.7,-3.2,0,12143,48.364,28.791,13924.5
165825669,0.634767,2.223,92.678,-0.433362,0.0832951,0.904841,1.55958,3.1384,-0.074736,-1.42003,-4.01658,2.30187,2.7,-3.2,0,12143,48.364,28.791,13924.5
165926005,0.634767,2.223,92.6883,-0.422353,0.0684432,0.910302,1.82339,2.7425,-0.0672331,-1.29101,-4.00052,1.88162,2.7,-3.2,0,12143,48.364,28.791,13924.5
166026394,0.634767,2.223,92.7031,-0.414481,0.0503133,0.916422,2.07339,2.364,-0.0640133,-1.28142,-3.97735,1.46343,-0.4,2.9,0,12143,48.364,28.791,13924.5
166126729,0.634767,2.223,92.702,-0.393234,0.0363939,0.921752,2.32902,2.00635,-0.0587633,-0.996502,-3.64046,1.72881,-0.4,2.9,0,12143,48.364,28.791,13924.5
166227031,0.634767,2.223,92.6887,-0.224591,0.117533,0.921504,2.61628,1.64463,0.0811716,-0.789886,-3.51805,3.11555,-0.4,2.9,0,12143,48.364,28.791,13924.5
166327365,0.634767,2.223,92.7423,0.0896005,0.212172,0.947874,2.61573,1.35885,0.139822,-2.24344,-1.04482,-0.485298,-0.4,2.9,0,12140,48.393,27.752,13430
166427686,0.634767,2.223,92.7774,0.321792,0.239881,0.976555,2.30347,1.24957,-0.00719037,-2.73749,2.47335,-0.777885,-0.4,2.9,0,12140,48.393,27.752,13430
166527918,0.634767,2.223,92.773,0.43614,0.240585,0.989114,1.81421,1.23805,-0.142432,-2.58963,3.86478,1.65494,-0.4,2.9,0,12140,48.393,27.752,13430
166628273,0.634767,2.223,92.7512,0.478428,0.236713,0.991976,1.19699,1.28182,-0.169179,-2.71108,4.6183,2.76609,-0.4,2.9,0,12140,48.393,27.752,13430
166728642,0.634767,2.223,92.7582,0.470768,0.236992,0.993288,0.543378,1.34192,-0.18147,-2.69803,4.6324,3.20763,-0.4,2.9,0,12140,48.393,27.752,13430
166828998,0.634767,2.223,92.7501,0.442293,0.236708,0.99165,-0.102599,1.39085,-0.158739,-2.69261,4.39738,3.28817,-0.4,2.9,0,12140,48.393,27.752,13430
166929358,0.634767,2.223,92.7607,0.387731,0.214209,0.979768,-0.710987,1.43408,-0.141766,-2.66371,4.2712,2.57363,-0.4,2.9,0,12140,48.393,27.752,13430
167032610,0.634767,2.223,92.7616,0.308338,0.172512,0.964354,-1.23258,1.46792,-0.103592,-2.2392,3.48872,2.07455,-0.2,2.6,0,12140,48.393,27.752,13430
167138253,0.634767,2.223,92.7613,0.212898,0.112186,0.948539,-1.70383,1.50377,-0.076535,-1.68319,2.63811,1.15843,-0.2,2.6,0,12140,48.393,27.752,13430
167238624,0.634767,2.223,92.7748,0.113742,0.049946,0.939756,-1.94614,1.52923,-0.0463165,-0.902877,1.43446,0.044346,-0.2,2.6,0,12140,48.393,27.752,13430
167338955,0.634767,2.223,92.802,0.0584779,0.0118686,0.937743,-2.07919,1.55547,-0.0572357,-0.36076,0.744224,-0.388855,-0.2,2.6,0,12100,48.411,27.752,13435
167439279,0.634767,2.223,92.8133,0.0231816,-0.00749326,0.938141,-2.1584,1.57891,-0.0544573,-0.146181,0.277418,-0.431393,-0.2,2.6,0,12100,48.411,27.752,13435
167540475,0.634767,2.223,92.819,0.00517945,-0.0172022,0.938618,-2.2086,1.60606,-0.0627127,0.0534952,0.0685425,-0.313877,-0.2,2.6,0,12100,48.411,27.752,13435
167640826,0.634767,2.223,92.8039,-0.00427397,-0.0180875,0.939307,-2.2291,1.62996,-0.0632877,0.124685,-0.0872393,-0.045389,-0.2,2.6,0,12100,48.411,27.752,13435
167741192,0.634767,2.223,92.8078,-0.00925611,-0.0137031,0.939252,-2.23294,1.65189,-0.0508694,0.176184,-0.210782,-0.248538,-0.2,2.6,0,12100,48.411,27.752,13435
167841564,0.634767,2.223,92.7757,-0.00687591,-0.00824305,0.93919,-2.24201,1.66403,-0.0524387,0.0259179,-0.118433,0.188693,-0.2,2.6,0,12100,48.411,27.752,13435
167941921,0.634767,2.223,92.7663,-0.0071214,-0.00133704,0.939342,-2.25732,1.67331,-0.055667,-0.0401264,-0.0992214,-0.213017,-0.2,2.6,0,12100,48.411,27.752,13435
168042334,0.634767,2.223,92.7615,-0.00671427,0.00265393,0.939043,-2.2621,1.6797,-0.0530186,-0.0284796,-0.132848,-0.106211,-0.9,-2.7,0,12100,48.411,27.752,13435
168142686,0.634767,2.223,92.7477,-0.03796,0.00681707,0.940971,-2.27164,1.67181,-0.0644887,-0.183069,-0.0832669,0.136714,-0.9,-2.7,0,12100,48.411,27.752,13435
168243046,0.634767,2.223,92.7293,-0.192509,0.0230179,0.937954,-2.23495,1.6287,-0.0262791,-0.244201,-0.963284,0.429411,-0.9,-2.7,0,12100,48.411,27.752,13435
168343453,0.634767,2.223,92.7143,-0.332602,0.0332897,0.935184,-2.04581,1.45451,-0.0506207,-0.315976,-2.66205,0.663918,-0.9,-2.7,0,12100,48.411,27.752,13435
168443811,0.634767,2.223,92.7065,-0.414126,0.0410019,0.933513,-1.76972,1.20586,-0.0748792,-0.453707,-3.63808,1.32187,-0.9,-2.7,0,12100,48.411,27.752,13435
168544286,0.634767,2.223,92.695,-0.447489,0.0473377,0.932435,-1.43442,0.90782,-0.0755744,-0.475004,-4.02767,2.09937,-0.9,-2.7,0,12100,48.411,27.752,13435
168644641,0.634767,2.223,92.68,-0.453936,0.0535358,0.931523,-1.0943,0.57748,-0.0887823,-0.637329,-4.22242,2.06736,-0.9,-2.7,0,12100,48.411,27.752,13435
168744989,0.634767,2.223,92.6639,-0.443752,0.058334,0.930046,-0.752232,0.240378,-0.0669994,-0.679937,-4.19047,2.06724,-0.9,-2.7,0,12100,48.411,27.752,13435
168845383,0.634767,2.223,92.6588,-0.431079,0.0627528,0.929032,-0.427069,-0.0942221,-0.0487548,-0.716321,-3.96892,2.07469,-0.9,-2.7,0,12100,48.411,27.752,13435
168945721,0.634767,2.223,92.6632,-0.418521,0.0648299,0.928736,-0.12072,-0.410059,-0.0338108,-0.67867,-3.65131,2.14428,-0.9,-2.7,0,12100,48.411,27.752,13435
169049168,0.634767,2.223,92.6625,-0.408645,0.0649806,0.929409,0.173837,-0.723185,-0.0307825,-0.732093,-3.77709,1.61072,-3.6,-2.5,0,12100,48.485,27.908,13531.2
169149531,0.634767,2.223,92.656,-0.38823,0.0805532,0.927259,0.449519,-1.03293,-0.0291953,-0.76573,-3.52779,1.70211,-3.6,-2.5,0,12100,48.485,27.908,13531.2
169249850,0.634767,2.223,92.6582,-0.298487,0.197968,0.919691,0.700298,-1.33754,0.000447299,-1.01968,-3.209,1.47386,-3.6,-2.5,0,12100,48.485,27.908,13531.2
169350203,0.634767,2.223,92.6492,-0.208576,0.292227,0.9158,0.752449,-1.68361,0.0161329,-2.36094,-2.08373,0.910939,-3.6,-2.5,0,12100,48.485,27.908,13531.2
169450547,0.634767,2.223,92.6333,-0.155681,0.348188,0.913676,0.676244,-2.02393,-0.0199359,-2.97934,-1.16335,1.00391,-3.6,-2.5,0,12100,48.485,27.908,13531.2
169550889,0.634767,2.223,92.6382,-0.135919,0.3713,0.910421,0.526426,-2.39427,-0.0290327,-3.51247,-0.850019,1.25411,-3.6,-2.5,0,12100,48.485,27.908,13531.2
169651238,0.634767,2.223,92.6348,-0.134837,0.360187,0.90845,0.351653,-2.76861,-0.0303569,-3.56882,-0.758792,1.40574,-3.6,-2.5,0,12100,48.485,27.908,13531.2
169751589,0.634767,2.223,92.6325,-0.129906,0.312873,0.910718,0.197903,-3.11596,-0.0339724,-3.19707,-0.634113,1.20874,-3.6,-2.5,0,12100,48.485,27.908,13531.2
169851933,0.634767,2.223,92.6525,-0.122175,0.259036,0.915839,0.0611489,-3.41398,-0.00274852,-2.76038,-0.674923,0.829401,-3.6,-2.5,0,12100,48.485,27.908,13531.2
169952339,0.634767,2.223,92.681,-0.115217,0.207027,0.921065,-0.0456659,-3.64768,0.00307364,-2.13734,-0.524974,0.555415,-3.6,-2.5,0,12100,48.485,27.908,13531.2
170052754,0.634767,2.223,92.6922,-0.112693,0.162492,0.925631,-0.115878,-3.8188,-0.00683529,-1.50432,-0.489635,0.265461,0.1,-2.3,0,12052,48.516,25.634,12436.6
170153078,0.634767,2.223,92.7179,-0.108688,0.108845,0.930961,-0.170435,-3.96928,-0.00125217,-1.16519,-0.568485,0.223565,0.1,-2.3,0,12052,48.516,25.634,12436.6
170253428,0.634767,2.223,92.7434,-0.0844756,-0.128462,0.940147,-0.202641,-4.06998,0.051062,-0.378143,-0.410005,0.530834,0.1,-2.3,0,12052,48.516,25.634,12436.6
170353784,0.634767,2.223,92.7663,-0.0630877,-0.325658,0.949356,-0.0784707,-3.89799,0.0199786,2.73276,-0.159625,-0.477508,0.1,-2.3,0,12052,48.516,25.634,12436.6
170454139,0.634767,2.223,92.7716,-0.0592035,-0.433091,0.956795,0.121442,-3.58922,-0.0573483,3.7439,0.0379457,1.49079,0.1,-2.3,0,12052,48.516,25.634,12436.6
170555307,0.634767,2.223,92.7893,-0.0648639,-0.474343,0.963438,0.397428,-3.182,-0.0841922,4.53849,-0.0126588,2.09877,0.1,-2.3,0,12052,48.516,25.634,12436.6
170661160,0.634767,2.223,92.8228,-0.0671495,-0.432147,0.966073,0.746,-2.67009,-0.0894849,4.67316,0.0240269,1.90297,0.1,-2.3,0,12052,48.516,25.634,12436.6
170761514,0.634767,2.223,92.8236,-0.0722952,-0.360287,0.964349,0.994635,-2.29908,-0.093316,4.00053,0.0116499,1.63587,0.1,-2.3,0,12052,48.516,25.634,12436.6
170861867,0.634767,2.223,92.7926,-0.0782641,-0.279399,0.960304,1.20332,-2.00747,-0.0999969,3.18773,-0.0620598,1.07947,0.1,-2.3,0,12052,48.516,25.634,12436.6
170962254,0.634767,2.223,92.753,-0.0872115,-0.212496,0.955118,1.37713,-1.78604,-0.092254,2.48982,-0.184139,1.04432,0.1,-2.3,0,12052,48.516,25.634,12436.6
171062647,0.634767,2.223,92.7104,-0.0958101,-0.154042,0.950333,1.51447,-1.6202,-0.0941857,1.89906,-0.269552,0.560367,-1.2,1.5,0,12052,48.366,29.762,14394.7
171162990,0.634767,2.223,92.6762,-0.073685,-0.101715,0.942604,1.63582,-1.51599,-0.0671542,1.28341,-0.490566,0.623472,-1.2,1.5,0,12052,48.366,29.762,14394.7
171263324,0.634767,2.223,92.6529,0.132314,0.00282234,0.936985,1.69465,-1.43633,-0.0217894,0.715785,0.182893,0.839456,-1.2,1.5,0,12052,48.366,29.762,14394.7
171363666,0.634767,2.223,92.6366,0.307089,0.0879739,0.952348,1.44526,-1.30234,-0.0282759,-0.640357,2.92426,0.288211,-1.2,1.5,0,12052,48.366,29.762,14394.7
171463995,0.634767,2.223,92.6314,0.405508,0.131471,0.965991,1.05048,-1.14661,-0.0786403,-1.1627,3.93055,1.4964,-1.2,1.5,0,12052,48.366,29.762,14394.7
171564397,0.634767,2.223,92.6178,0.452865,0.149068,0.973024,0.539784,-0.97407,-0.0822186,-1.44519,4.46163,2.81295,-1.2,1.5,0,12052,48.366,29.762,14394.7
171664762,0.634767,2.223,92.6155,0.445878,0.147859,0.971463,-0.0203472,-0.781361,-0.0745345,-1.51654,4.92194,2.69015,-1.2,1.5,0,12052,48.366,29.762,14394.7
171765189,0.634767,2.223,92.6281,0.375173,0.12877,0.963214,-0.541144,-0.598073,-0.0436712,-1.33163,4.53762,2.4489,-1.2,1.5,0,12052,48.366,29.762,14394.7
171865567,0.634767,2.223,92.6474,0.288038,0.105335,0.953475,-0.944848,-0.467769,-0.0210534,-1.14666,3.56089,1.4687,-1.2,1.5,0,12052,48.366,29.762,14394.7
171965914,0.634767,2.223,92.6617,0.209667,0.0843785,0.947707,-1.26021,-0.370777,0.00956657,-0.898037,2.78111,0.685341,-1.2,1.5,0,12052,48.366,29.762,14394.7
172066320,0.634767,2.223,92.6641,0.143552,0.0672138,0.944537,-1.48455,-0.305639,0.00732966,-0.699673,1.99007,0.105336,4.9,-4.4,0,12052,48.366,29.762,14394.7
172166663,0.634767,2.223,92.6541,0.063146,0.0228648,0.939371,-1.65743,-0.269798,-0.00413168,-0.645526,1.45419,0.32467,4.9,-4.4,0,12052,48.379,28.045,13567.9
172267016,0.634767,2.223,92.6626,-0.121148,-0.128042,0.948261,-1.7101,-0.229871,0.0579519,0.348392,0.271119,0.66109,4.9,-4.4,0,12052,48.379,28.045,13567.9
172367368,0.634767,2.223,92.6899,-0.253629,-0.23108,0.968847,-1.49096,-0.183094,0.025368,1.89433,-1.75576,-0.15226,4.9,-4.4,0,12052,48.379,28.045,13567.9
172467719,0.634767,2.223,92.7074,-0.327656,-0.290252,0.984473,-1.13886,-0.131374,-0.0299412,2.60823,-2.60884,1.0524,4.9,-4.4,0,12052,48.379,28.045,13567.9
172568090,0.634767,2.223,92.7284,-0.358224,-0.315145,0.991306,-0.682576,-0.069176,-0.0373316,2.89293,-2.92677,1.93872,4.9,-4.4,0,12052,48.379,28.045,13567.9
172668430,0.634767,2.223,92.7615,-0.358287,-0.320018,0.990866,-0.191093,-0.0127703,-0.0358744,3.09494,-3.23837,1.88566,4.9,-4.4,0,12052,48.379,28.045,13567.9
172768807,0.634767,2.223,92.7612,-0.346733,-0.31599,0.987818,0.29065,0.05663,-0.0327896,3.09,-2.98735,1.89096,4.9,-4.4,0,12052,48.379,28.045,13567.9
172869154,0.634767,2.223,92.7257,-0.335847,-0.313358,0.985902,0.745909,0.124555,-0.0460641,2.96927,-2.83346,1.75835,4.9,-4.4,0,12052,48.379,28.045,13567.9
172970562,0.634767,2.223,92.7093,-0.323686,-0.311246,0.984519,1.20193,0.20039,-0.0419443,3.02922,-2.85321,1.58991,4.9,-4.4,0,12052,48.379,28.045,13567.9
173073233,0.634767,2.223,92.6898,-0.309846,-0.308079,0.982707,1.64958,0.275702,-0.0362844,2.82983,-2.51831,1.90612,-3.5,2.7,0,12052,48.379,28.045,13567.9
173173617,0.634767,2.223,92.667,-0.285482,-0.28797,0.97873,2.07046,0.35784,-0.0369865,2.84093,-2.44074,1.52285,-3.5,2.7,0,12052,48.322,28.584,13812.4
173273969,0.634767,2.223,92.6312,-0.131459,-0.10311,0.945285,2.48053,0.434389,-0.0125339,2.41863,-2.16525,1.75818,-3.5,2.7,0,12052,48.322,28.584,13812.4
173374317,0.634767,2.223,92.6242,0.0911144,0.14411,0.946399,2.54712,0.41847,0.0556343,-0.137138,-0.0363708,0.504052,-3.5,2.7,0,12052,48.322,28.584,13812.4
173474677,0.634767,2.223,92.612,0.23512,0.280833,0.973479,2.25602,0.344723,0.00590962,-2.40585,2.23665,0.621017,-3.5,2.7,0,12052,48.322,28.584,13812.4
173575030,0.634767,2.223,92.5812,0.30643,0.346911,0.99367,1.80412,0.234469,-0.0298439,-3.35125,3.02387,1.88741,-3.5,2.7,0,12052,48.322,28.584,13812.4
173675425,0.634767,2.223,92.5837,0.329226,0.369702,1.00123,1.2745,0.110372,-0.0601196,-3.57482,3.32298,2.71714,-3.5,2.7,0,12052,48.322,28.584,13812.4
173775734,0.634767,2.223,92.586,0.329829,0.375235,1.00215,0.716576,-0.0242485,-0.0547062,-3.81839,3.33795,2.53316,-3.5,2.7,0,12052,48.322,28.584,13812.4
173876094,0.634767,2.223,92.5925,0.321372,0.372551,0.999413,0.15558,-0.163533,-0.0601561,-3.72959,3.26952,2.98395,-3.5,2.7,0,12052,48.322,28.584,13812.4
173976444,0.634767,2.223,92.5982,0.311186,0.363342,0.996017,-0.398987,-0.303855,-0.0355073,-3.6167,3.22656,2.51669,-3.5,2.7,0,12052,48.322,28.584,13812.4
174076868,0.634767,2.223,92.62,0.298548,0.349054,0.992025,-0.934583,-0.435397,-0.0352973,-3.54906,3.17361,2.32546,4.8,0.9,0,12052,48.322,28.584,13812.4
174177189,0.634767,2.223,92.595,0.282858,0.319001,0.984369,-1.45,-0.564526,-0.0258334,-3.388,2.96555,2.07244,4.8,0.9,0,12011,48.289,28.761,13888.4
174277481,0.634767,2.223,92.6108,0.213055,0.115603,0.960311,-1.94805,-0.657665,0.0516529,-2.88714,2.85084,2.03151,4.8,0.9,0,12011,48.289,28.761,13888.4
174377838,0.634767,2.223,92.6199,0.0856828,-0.188985,0.940954,-2.16786,-0.571105,0.0780671,0.0800322,1.80439,0.261342,4.8,0.9,0,12011,48.289,28.761,13888.4
174478177,0.634767,2.223,92.6052,-0.0101744,-0.367611,0.945022,-2.09343,-0.329447,0.0154769,2.83781,0.434997,0.376364,4.8,0.9,0,12011,48.289,28.761,13888.4
174578528,0.634767,2.223,92.6154,-0.0630207,-0.457067,0.950918,-1.85018,-0.00817963,-0.0137984,3.85539,-0.275216,1.9691,4.8,0.9,0,12011,48.289,28.761,13888.4
174678892,0.634767,2.223,92.6424,-0.0869188,-0.486053,0.952315,-1.52236,0.360572,-0.00500205,4.56098,-0.594487,2.32247,4.8,0.9,0,12011,48.289,28.761,13888.4
174779243,0.634767,2.223,92.675,-0.0900599,-0.485421,0.950233,-1.16783,0.727849,-0.0080355,4.67133,-0.747389,2.18115,4.8,0.9,0,12011,48.289,28.761,13888.4
174879604,0.634767,2.223,92.6847,-0.0853888,-0.472894,0.947523,-0.809602,1.0867,0.00593124,4.49737,-0.798814,2.22175,4.8,0.9,0,12011,48.289,28.761,13888.4
174979944,0.634767,2.223,92.686,-0.0741268,-0.455022,0.94522,-0.472336,1.43182,0.00613426,4.2799,-0.653048,2.09959,4.8,0.9,0,12011,48.289,28.761,13888.4
175080429,0.634767,2.223,92.674,-0.062971,-0.437442,0.943812,-0.0950218,1.83575,-0.00543769,4.15364,-0.563526,1.51251,1,-2.4,0,12011,48.289,28.761,13888.4
175180820,0.634767,2.223,92.6362,-0.0602629,-0.409054,0.942581,0.195153,2.16871,-0.00927545,3.82094,-0.267081,1.69382,1,-2.4,0,12011,48.281,30.215,14588.1
175281190,0.634767,2.223,92.6297,-0.170902,-0.232261,0.95664,0.504815,2.46391,0.102179,3.17029,-0.655587,2.24218,1,-2.4,0,12011,48.281,30.215,14588.1
175381533,0.634767,2.223,92.6175,-0.315524,-0.0105994,0.943476,0.750697,2.39232,0.114604,0.340572,-2.68677,-0.0749596,1,-2.4,0,12011,48.281,30.215,14588.1
175481899,0.634767,2.223,92.6113,-0.397116,0.10711,0.915233,0.954199,2.12571,-0.00528187,-1.22203,-3.2904,0.625239,1,-2.4,0,12011,48.281,30.215,14588.1
175582269,0.634767,2.223,92.6045,-0.435025,0.161732,0.897125,1.18835,1.72314,-0.0467784,-1.85573,-3.58445,2.39471,1,-2.4,0,12011,48.281,30.215,14588.1
175682592,0.634767,2.223,92.6154,-0.440245,0.176594,0.8891,1.41211,1.27833,-0.0466369,-2.11811,-3.65694,2.39716,1,-2.4,0,12011,48.281,30.215,14588.1
175782949,0.634767,2.223,92.5756,-0.409961,0.161272,0.893129,1.63233,0.841352,-0.066401,-2.05563,-3.80882,1.90243,1,-2.4,0,12011,48.281,30.215,14588.1
175884611,0.634767,2.223,92.576,-0.350709,0.132517,0.903806,1.82274,0.449831,-0.048303,-1.80109,-3.18213,1.95096,1,-2.4,0,12011,48.281,30.215,14588.1
175985321,0.634767,2.223,92.5915,-0.284913,0.0920935,0.917093,1.96806,0.129268,-0.0323356,-1.50462,-2.58311,1.25557,1,-2.4,0,12011,48.281,30.215,14588.1
176085917,0.634767,2.223,92.5775,-0.223766,0.0529045,0.927226,2.0925,-0.108765,-0.0213303,-0.974324,-2.01377,0.864634,-3.1,0,0,12011,48.281,30.215,14588.1
176186255,0.634767,2.223,92.5795,-0.157257,0.0574195,0.932457,2.19463,-0.272929,0.00541485,-0.45853,-1.46238,0.865504,-3.1,0,0,12011,48.231,31.14,15019.1
176286671,0.634767,2.223,92.6193,0.00241227,0.212047,0.942869,2.20274,-0.420341,0.0698026,-1.20575,-0.410884,0.8548,-3.1,0,0,12011,48.231,31.14,15019.1
176387300,0.634767,2.223,92.6549,0.131377,0.323605,0.961987,1.93423,-0.60686,0.0469452,-2.92612,1.37015,0.308439,-3.1,0,0,12011,48.231,31.14,15019.1
176487717,0.634767,2.223,92.6614,0.198054,0.377895,0.974646,1.55467,-0.787514,-0.0194952,-3.42247,2.07981,1.12519,-3.1,0,0,12011,48.231,31.14,15019.1
176588088,0.634767,2.223,92.6649,0.226876,0.396958,0.978235,1.07693,-0.992195,-0.0524681,-3.99352,2.56116,1.71001,-3.1,0,0,12011,48.231,31.14,15019.1
176688447,0.634767,2.223,92.6724,0.225841,0.394737,0.973793,0.575604,-1.18683,-0.0693063,-3.81906,2.61998,2.05012,-3.1,0,0,12011,48.231,31.14,15019.1
176788803,0.634767,2.223,92.6738,0.202178,0.389586,0.968275,0.0687655,-1.37037,-0.0626006,-3.63602,2.54747,2.4401,-3.1,0,0,12011,48.231,31.14,15019.1
176889165,0.634767,2.223,92.7125,0.163156,0.359394,0.959006,-0.407368,-1.57229,-0.0393356,-3.58299,2.19448,2.34008,-3.1,0,0,12011,48.231,31.14,15019.1
176989542,0.634767,2.223,92.7296,0.111656,0.308846,0.949848,-0.811973,-1.74922,-0.0329944,-3.09732,1.81005,1.52825,-3.1,0,0,12011,48.231,31.14,15019.1
177089919,0.634767,2.223,92.7195,0.0650396,0.254585,0.943763,-1.12482,-1.90382,-0.0335594,-2.54138,1.27646,1.18331,2.6,-2.6,0,12011,48.231,31.14,15019.1
177190283,0.634767,2.223,92.719,0.0211496,0.187005,0.938296,-1.36811,-2.03643,-0.0470945,-2.0705,0.858633,0.487721,2.6,-2.6,0,12011,48.231,31.14,15019.1
177290667,0.634767,2.223,92.7372,-0.078694,-0.0642017,0.940306,-1.52906,-2.13011,0.00691811,-1.13998,0.349557,0.670707,2.6,-2.6,0,12011,48.227,29.953,14445.4
177391018,0.634767,2.223,92.7674,-0.165377,-0.272645,0.964397,-1.41297,-2.03867,0.00390642,2.00566,-0.854241,-0.231144,2.6,-2.6,0,12011,48.227,29.953,14445.4
177491334,0.634767,2.223,92.7718,-0.216888,-0.382066,0.986038,-1.1413,-1.85387,-0.080405,3.25372,-1.401,0.937012,2.6,-2.6,0,12011,48.227,29.953,14445.4
177591703,0.634767,2.223,92.8075,-0.241989,-0.430022,0.998343,-0.755544,-1.60283,-0.106951,3.90268,-1.63478,2.27258,2.6,-2.6,0,12011,48.227,29.953,14445.4
177692055,0.634767,2.223,92.8372,-0.244843,-0.436016,1.00116,-0.317317,-1.31621,-0.0939032,4.49443,-1.91268,2.12393,2.6,-2.6,0,12011,48.227,29.953,14445.4
177792337,0.634767,2.223,92.8668,-0.240848,-0.422446,1.00005,0.12303,-1.03454,-0.0839424,4.26184,-1.85835,2.4085,2.6,-2.6,0,12011,48.227,29.953,14445.4
177892688,0.634767,2.223,92.9034,-0.23818,-0.403787,0.997308,0.529599,-0.768096,-0.0813037,3.97014,-1.60855,2.27701,2.6,-2.6,0,12011,48.227,29.953,14445.4
177993037,0.634767,2.223,92.9275,-0.240333,-0.38519,0.995113,0.932581,-0.52244,-0.0820144,3.86481,-1.74145,1.76436,2.6,-2.6,0,12011,48.227,29.953,14445.4
178093419,0.634767,2.223,92.8982,-0.241532,-0.365683,0.992628,1.31131,-0.295198,-0.102756,3.62061,-1.62524,1.56183,-4.6,-0.1,0,12011,48.227,29.953,14445.4
178193773,0.634767,2.223,92.8479,-0.241979,-0.330709,0.988129,1.68881,-0.0749551,-0.101264,3.43942,-1.64239,1.60982,-4.6,-0.1,0,12011,48.227,29.953,14445.4
178294135,0.634767,2.223,92.8207,-0.14395,-0.103925,0.957397,2.06496,0.10261,-0.071377,2.84441,-1.59764,1.86612,-4.6,-0.1,0,12011,48.29,28.742,13879.5
178394424,0.634767,2.223,92.8024,-0.00240269,0.19273,0.944791,2.14356,0.0970195,-0.0284177,-0.307582,-0.387155,-0.354872,-4.6,-0.1,0,12011,48.29,28.742,13879.5
178494798,0.634767,2.223,92.7716,0.0909223,0.356874,0.954377,1.91969,-0.0593505,-0.102512,-2.85078,0.970667,0.571254,-4.6,-0.1,0,12011,48.29,28.742,13879.5
178595156,0.634767,2.223,92.7398,0.140158,0.428879,0.962011,1.56225,-0.277246,-0.150425,-3.71901,1.5615,1.84689,-4.6,-0.1,0,12011,48.29,28.742,13879.5
178695452,0.634767,2.223,92.7165,0.154109,0.444435,0.960935,1.11969,-0.526754,-0.175174,-4.12059,1.90844,2.56905,-4.6,-0.1,0,12011,48.29,28.742,13879.5
178795719,0.634767,2.223,92.6913,0.146282,0.437957,0.955581,0.656612,-0.786048,-0.162338,-4.11876,1.84689,2.9029,-4.6,-0.1,0,12011,48.29,28.742,13879.5
178896101,0.634767,2.223,92.6956,0.129409,0.428796,0.951409,0.202854,-1.04019,-0.127727,-3.96263,1.82369,2.80269,-4.6,-0.1,0,12011,48.29,28.742,13879.5
178996492,0.634767,2.223,92.6938,0.105553,0.421126,0.94802,-0.220902,-1.28423,-0.0994725,-3.86674,1.701,2.22231,-4.6,-0.1,0,12011,48.29,28.742,13879.5
179096860,0.634767,2.223,92.6913,0.0746676,0.411953,0.944769,-0.612606,-1.54411,-0.0944473,-3.7566,1.3886,2.01704,-4.1,1.2,0,12011,48.29,28.742,13879.5
179197251,0.634767,2.223,92.6973,0.0568897,0.397793,0.943721,-0.979271,-1.83149,-0.0592874,-3.56932,1.03515,2.31129,-4.1,1.2,0,12011,48.29,28.742,13879.5
179297591,0.634767,2.223,92.7083,0.119334,0.359783,0.964649,-1.32152,-2.09604,-0.0132548,-3.27309,1.10153,1.7123,-4.1,1.2,0,12011,48.363,28.029,13555.7
179397926,0.634767,2.223,92.7046,0.172402,0.318333,0.97238,-1.67922,-2.27321,-0.0234124,-3.01246,1.65431,1.24582,-4.1,1.2,0,12011,48.363,28.029,13555.7
179498428,0.634767,2.223,92.7174,0.185304,0.267965,0.966565,-2.03701,-2.38619,-0.0194977,-2.46684,1.96004,1.17019,-4.1,1.2,0,12011,48.363,28.029,13555.7
179601210,0.634767,2.223,92.7291,0.166801,0.223891,0.956901,-2.42732,-2.46027,-0.0204841,-1.99303,1.98399,0.437209,-4.1,1.2,0,12011,48.363,28.029,13555.7
179701574,0.634767,2.223,92.7378,0.131489,0.184197,0.949315,-2.69439,-2.49393,-0.0290824,-1.52104,1.69053,0.361734,-4.1,1.2,0,12011,48.363,28.029,13555.7
179801934,0.634767,2.223,92.7487,0.0939581,0.152735,0.944507,-2.8978,-2.51917,-0.0355115,-1.18698,1.24032,-0.0303816,-4.1,1.2,0,12011,48.363,28.029,13555.7
179902295,0.634767,2.223,92.7448,0.0600132,0.129478,0.942527,-3.05249,-2.54171,-0.0455444,-0.910153,0.870862,-0.0574178,-4.1,1.2,0,12011,48.363,28.029,13555.7
180002648,0.634767,2.223,92.7552,0.033649,0.111338,0.941484,-3.1667,-2.56261,-0.0534936,-0.715531,0.509988,0.20434,-4.1,1.2,0,12011,48.363,28.029,13555.7
180103031,0.634767,2.223,92.7218,0.0154065,0.0974082,0.941563,-3.25411,-2.58813,-0.0693655,-0.589317,0.322843,-0.1883,4.7,0.2,0,12011,48.363,28.029,13555.7
180203389,0.634767,2.223,92.7333,-0.003035,0.0595103,0.939652,-3.3319,-2.60417,-0.060749,-0.553922,0.321716,0.172034,4.7,0.2,0,12011,48.363,28.029,13555.7
180303748,0.634767,2.223,92.7403,-0.0429305,-0.174762,0.943513,-3.33285,-2.55716,-0.000156574,0.827171,-0.00246169,0.43539,4.7,0.2,0,11967,48.271,28.634,13821.9
180404097,0.634767,2.223,92.7544,-0.0714645,-0.341184,0.951278,-3.13081,-2.32631,-0.00508291,3.18365,-0.47916,0.264769,4.7,0.2,0,11967,48.271,28.634,13821.9
180504473,0.634766,2.223,92.7456,-0.0878073,-0.436361,0.955755,-2.84736,-1.99866,-0.0660601,4.28841,-0.556026,1.16902,4.7,0.2,0,11967,48.271,28.634,13821.9
180604835,0.634766,2.223,92.7568,-0.0953429,-0.490434,0.957266,-2.4819,-1.61279,-0.107299,4.72298,-0.713857,2.25651,4.7,0.2,0,11967,48.271,28.634,13821.9
180705174,0.634766,2.223,92.7458,-0.0932907,-0.502965,0.955598,-2.08003,-1.1768,-0.129221,4.98898,-0.637144,2.80874,4.7,0.2,0,11967,48.271,28.634,13821.9
180805506,0.634766,2.223,92.714,-0.0865615,-0.488421,0.954384,-1.6729,-0.741313,-0.128352,4.94427,-0.629567,2.92914,4.7,0.2,0,11967,48.271,28.634,13821.9
180905892,0.634766,2.223,92.6877,-0.0733411,-0.467137,0.952613,-1.2957,-0.322975,-0.115964,4.64541,-0.484314,2.74378,4.7,0.2,0,11967,48.271,28.634,13821.9
181006220,0.634766,2.223,92.6625,-0.0657701,-0.446023,0.952089,-0.933314,0.0979533,-0.0674303,4.40006,-0.305148,3.06522,4.7,0.2,0,11967,48.271,28.634,13821.9
181106693,0.634766,2.223,92.6532,-0.0617317,-0.427305,0.952054,-0.593967,0.483821,-0.0392557,4.36498,-0.360249,2.09425,3.1,-0.7,0,11967,48.271,28.634,13821.9
181208564,0.634766,2.223,92.6202,-0.0853363,-0.407191,0.958566,-0.280512,0.839943,-0.0408627,4.1006,-0.241169,1.65759,3.1,-0.7,0,11967,48.271,28.634,13821.9
181308906,0.634766,2.223,92.6177,-0.149467,-0.37505,0.974782,0.0615355,1.16233,-0.00335426,3.94185,-0.898085,1.7381,3.1,-0.7,0,11967,48.288,29.841,14409.6
181409240,0.634766,2.223,92.6147,-0.19499,-0.335645,0.975977,0.399315,1.40668,-0.00529008,3.51431,-1.16921,1.01926,3.1,-0.7,0,11967,48.288,29.841,14409.6
181509619,0.634766,2.223,92.6125,-0.209303,-0.28429,0.967428,0.752652,1.58532,-0.00993558,2.97276,-1.52367,1.4981,3.1,-0.7,0,11967,48.288,29.841,14409.6
181609965,0.634766,2.223,92.5946,-0.195441,-0.236076,0.956826,1.07494,1.69556,0.0138565,2.39705,-1.64741,0.954687,3.1,-0.7,0,11967,48.288,29.841,14409.6
181710350,0.634766,2.223,92.5601,-0.165759,-0.195273,0.948374,1.33901,1.7771,0.0123375,2.00952,-1.43873,0.524103,3.1,-0.7,0,11967,48.288,29.841,14409.6
181810710,0.634767,2.223,92.5577,-0.132827,-0.159707,0.942213,1.54904,1.842,0.0378432,1.56496,-1.12086,0.420788,3.1,-0.7,0,11967,48.288,29.841,14409.6
181911081,0.634767,2.223,92.5569,-0.11157,-0.13165,0.938804,1.69791,1.89141,0.0487142,1.19163,-0.718036,0.448563,3.1,-0.7,0,11967,48.288,29.841,14409.6
182011485,0.634767,2.223,92.5726,-0.0947628,-0.111096,0.937013,1.81963,1.91583,0.063668,0.884642,-0.662313,0.111638,3.1,-0.7,0,11967,48.288,29.841,14409.6
182111917,0.634767,2.223,92.5902,-0.0809219,-0.0967855,0.935716,1.90589,1.93194,0.0606677,0.738432,-0.481059,-0.321142,-1.9,2.8,0,11967,48.288,29.841,14409.6
182212325,0.634767,2.223,92.6126,-0.0617057,-0.0683059,0.935379,1.96283,1.94365,0.0612579,0.57131,-0.231869,-0.289229,-1.9,2.8,0,11967,48.288,29.841,14409.6
182312636,0.634767,2.223,92.6199,0.0679906,0.13578,0.937835,1.99867,1.93274,0.101777,0.00212413,-0.0167415,0.350446,-1.9,2.8,0,11967,48.288,29.841,14409.6
182413012,0.634767,2.223,92.6466,0.200695,0.307048,0.96646,1.72391,1.79979,0.0868638,-2.83995,1.81461,0.0117942,-1.9,2.8,0,11967,48.361,27.701,13396.5
182513371,0.634767,2.223,92.6544,0.270892,0.394891,0.994525,1.29136,1.62989,-0.0178853,-3.73864,2.59068,1.15375,-1.9,2.8,0,11967,48.361,27.701,13396.5
182613707,0.634767,2.223,92.6298,0.299826,0.429872,1.00973,0.747173,1.40449,-0.0558491,-4.19092,2.78677,2.81691,-1.9,2.8,0,11967,48.361,27.701,13396.5
182714060,0.634767,2.223,92.6071,0.303101,0.430397,1.01238,0.169362,1.1806,-0.0813099,-4.32224,3.01931,2.67872,-1.9,2.8,0,11967,48.361,27.701,13396.5
182814421,0.634767,2.223,92.5839,0.295723,0.412157,1.00741,-0.419037,0.958184,-0.0841656,-4.08296,2.91783,3.29457,-1.9,2.8,0,11967,48.361,27.701,13396.5
182914771,0.634767,2.223,92.5469,0.304108,0.392741,1.00345,-1.01055,0.748976,-0.059883,-3.86193,2.87731,3.58216,-1.9,2.8,0,11967,48.361,27.701,13396.5
183015113,0.634767,2.223,92.5142,0.296586,0.35994,0.995677,-1.60878,0.563622,-0.0315826,-3.87106,3.12305,2.92137,-1.9,2.8,0,11967,48.361,27.701,13396.5
183115504,0.634767,2.223,92.508,0.245076,0.290794,0.976234,-2.16295,0.41992,-0.0016502,-3.34177,2.93653,2.59996,3.5,2.2,0,11967,48.361,27.701,13396.5
183217153,0.634767,2.223,92.5291,0.186656,0.204533,0.958144,-2.58292,0.304578,0.0346377,-2.5862,2.17107,1.81067,3.5,2.2,0,11967,48.361,27.701,13396.5
183323412,0.634767,2.223,92.5549,0.090979,-0.0737701,0.941062,-2.92754,0.260096,0.132739,-0.961535,1.50445,0.568623,3.5,2.2,0,11967,48.361,27.701,13396.5
183423716,0.634766,2.223,92.5927,0.00845776,-0.30055,0.941069,-2.91491,0.430739,0.0925476,2.21455,0.518381,-0.289549,3.5,2.2,0,11964,48.199,30.67,14782.6
183524102,0.634766,2.223,92.6009,-0.0374584,-0.418357,0.945334,-2.73031,0.699328,0.0435415,3.53137,-0.195175,1.13329,3.5,2.2,0,11964,48.199,30.67,14782.6
183624459,0.634766,2.223,92.6196,-0.059508,-0.468003,0.946878,-2.46293,1.04661,0.0100871,4.35829,-0.338301,1.58476,3.5,2.2,0,11964,48.199,30.67,14782.6
183724814,0.634766,2.223,92.6436,-0.0623085,-0.477976,0.944753,-2.14986,1.41512,0.0175541,4.53315,-0.475986,2.01724,3.5,2.2,0,11964,48.199,30.67,14782.6
183825167,0.634766,2.223,92.6492,-0.057269,-0.472504,0.942344,-1.84299,1.79011,0.0128777,4.54628,-0.38974,2.00643,3.5,2.2,0,11964,48.199,30.67,14782.6
183925522,0.634766,2.223,92.6397,-0.0492916,-0.463468,0.941055,-1.53342,2.1529,0.0116242,4.24045,-0.43552,2.1704,3.5,2.2,0,11964,48.199,30.67,14782.6
184025830,0.634766,2.223,92.6406,-0.0409548,-0.452902,0.939367,-1.23132,2.52587,0.0153062,4.31933,-0.347376,1.81952,3.5,2.2,0,11964,48.199,30.67,14782.6
184126302,0.634766,2.223,92.6276,-0.0358679,-0.411832,0.937159,-0.942837,2.88404,0.0177867,4.11557,-0.261594,1.53254,1.8,-3.6,0,11964,48.199,30.67,14782.6
184226690,0.634766,2.223,92.5967,-0.0566665,-0.329833,0.938638,-0.694569,3.19841,0.0329247,3.34815,-0.114286,1.77955,1.8,-3.6,0,11964,48.199,30.67,14782.6
184327128,0.634766,2.223,92.5776,-0.213231,-0.154939,0.954061,-0.457485,3.41024,0.127731,2.38316,-0.850544,0.969982,1.8,-3.6,0,11964,48.199,30.67,14782.6
184427497,0.634766,2.223,92.5649,-0.346207,-0.0193213,0.940044,-0.224404,3.32438,0.0717366,0.393351,-2.75933,-0.365526,1.8,-3.6,0,11964,48.339,26.518,12818.5
184527796,0.634766,2.223,92.5588,-0.422664,0.0488301,0.922252,0.0345696,3.07854,-0.0101539,-0.685586,-3.44051,1.34009,1.8,-3.6,0,11964,48.339,26.518,12818.5
184628205,0.634766,2.223,92.5527,-0.454675,0.0801402,0.909771,0.332135,2.72186,-0.0194184,-1.20622,-4.05883,2.02043,1.8,-3.6,0,11964,48.339,26.518,12818.5
184728566,0.634766,2.223,92.5447,-0.459667,0.0908229,0.903598,0.619951,2.33256,-0.0307369,-1.44881,-4.14901,2.00547,1.8,-3.6,0,11964,48.339,26.518,12818.5
184828916,0.634766,2.223,92.5259,-0.453601,0.0889101,0.9027,0.897943,1.93813,-0.0263612,-1.41486,-3.91644,2.45926,1.8,-3.6,0,11964,48.339,26.518,12818.5
184929263,0.634766,2.223,92.5124,-0.444526,0.0763489,0.906923,1.17313,1.53981,-0.00850324,-1.34513,-3.85592,2.52123,1.8,-3.6,0,11964,48.339,26.518,12818.5
185029599,0.634766,2.223,92.528,-0.430425,0.0553137,0.913437,1.44253,1.16424,0.00292159,-1.1535,-3.79019,2.06286,1.8,-3.6,0,11964,48.339,26.518,12818.5
185129999,0.634766,2.223,92.5498,-0.414941,0.030328,0.920859,1.71161,0.830226,0.0232916,-0.886946,-3.55184,1.84136,4.7,-3.2,0,11964,48.339,26.518,12818.5
185230364,0.634766,2.223,92.5627,-0.387435,-0.0197663,0.93509,1.96223,0.53493,0.0185784,-0.642541,-3.31236,1.60948,4.7,-3.2,0,11964,48.339,26.518,12818.5
185330732,0.634766,2.223,92.582,-0.293452,-0.155471,0.946454,2.24181,0.309051,0.0715946,0.310405,-3.21368,0.386233,4.7,-3.2,0,11964,48.339,26.518,12818.5
185431060,0.634766,2.223,92.5883,-0.210436,-0.263071,0.954746,2.49004,0.288499,0.0476115,1.79045,-2.03661,0.133016,4.7,-3.2,0,11919,48.153,30.621,14744.9
185531413,0.634766,2.223,92.5905,-0.168872,-0.321796,0.962001,2.71877,0.403314,0.0150812,2.61784,-1.10005,0.475985,4.7,-3.2,0,11919,48.153,30.621,14744.9
185631764,0.634766,2.223,92.5989,-0.160709,-0.351464,0.968389,2.94942,0.56908,-0.00145736,2.97892,-0.865023,0.57395,4.7,-3.2,0,11919,48.153,30.621,14744.9
185732121,0.634767,2.223,92.6298,-0.163015,-0.361406,0.972491,3.19016,0.749604,-0.0251957,2.94718,-0.824724,1.1355,4.7,-3.2,0,11919,48.153,30.621,14744.9
185832480,0.634767,2.223,92.6587,-0.171204,-0.36092,0.974986,3.43691,0.936527,-0.0201451,2.966,-0.844622,1.15806,4.7,-3.2,0,11919,48.153,30.621,14744.9
185932834,0.634767,2.223,92.689,-0.180175,-0.356327,0.976163,3.68732,1.10693,-0.0128937,2.78665,-0.930835,1.37782,4.7,-3.2,0,11919,48.153,30.621,14744.9
186033186,0.634767,2.223,92.7185,-0.181563,-0.332931,0.973809,3.9262,1.28515,-0.00794625,2.82993,-0.945144,0.982384,4.7,-3.2,0,11919,48.153,30.621,14744.9
186133613,0.634767,2.223,92.743,-0.177911,-0.301785,0.968925,4.13425,1.42936,-0.00394734,2.39601,-0.91219,0.739844,-0.9,-5,0,11919,48.153,30.621,14744.9
186233964,0.634767,2.223,92.7754,-0.169184,-0.251423,0.962711,4.32161,1.55161,-0.0126909,2.05487,-0.87615,0.698675,-0.9,-5,0,11919,48.153,30.621,14744.9
186334324,0.634767,2.223,92.7944,-0.157383,-0.0219441,0.952203,4.49312,1.64281,0.0756178,1.46803,-0.847762,0.859555,-0.9,-5,0,11919,48.153,30.621,14744.9
186434678,0.634767,2.223,92.8349,-0.170736,0.210605,0.928213,4.45286,1.48854,0.0793401,-1.71707,-0.798243,-0.063341,-0.9,-5,0,11919,48.153,30.621,14744.9
186534977,0.634767,2.223,92.8335,-0.19275,0.319788,0.908771,4.31223,1.17329,-0.0177467,-3.22827,-0.864985,0.78307,-0.9,-5,0,11919,48.11,29.913,14391.1
186635316,0.634767,2.223,92.7972,-0.210368,0.368066,0.89534,4.14367,0.770112,-0.0536954,-3.89252,-1.10099,1.50114,-0.9,-5,0,11919,48.11,29.913,14391.1
186735581,0.634767,2.223,92.7564,-0.217392,0.38329,0.888486,3.96502,0.331226,-0.0827113,-4.25594,-1.23181,1.47038,-0.9,-5,0,11919,48.11,29.913,14391.1
186835879,0.634767,2.223,92.7168,-0.223137,0.381379,0.884126,3.78605,-0.124741,-0.100352,-4.09356,-1.29721,2.19854,-0.9,-5,0,11919,48.11,29.913,14391.1
186936282,0.634767,2.223,92.6834,-0.234403,0.368971,0.882765,3.61167,-0.582056,-0.105449,-4.10332,-1.33716,1.94711,-0.9,-5,0,11919,48.11,29.913,14391.1
187036692,0.634767,2.223,92.6441,-0.252044,0.343513,0.883569,3.45642,-1.03589,-0.108996,-3.75524,-1.36382,2.18315,-0.9,-5,0,11919,48.11,29.913,14391.1
187137135,0.634767,2.223,92.6638,-0.263315,0.313813,0.885897,3.33143,-1.47195,-0.103057,-3.55649,-1.45147,1.74334,3.4,-4.5,0,11919,48.11,29.913,14391.1
187237484,0.634767,2.223,92.6922,-0.275802,0.259824,0.893452,3.22089,-1.87583,-0.0970645,-3.31043,-1.51008,1.28496,3.4,-4.5,0,11919,48.11,29.913,14391.1
187337869,0.634767,2.223,92.7009,-0.220114,0.0353345,0.914623,3.18433,-2.25422,-0.0400985,-2.42314,-1.81246,1.06911,3.4,-4.5,0,11919,48.11,29.913,14391.1
187438219,0.634767,2.223,92.7588,-0.1366,-0.227823,0.939661,3.23409,-2.32648,-0.00671056,0.566462,-0.974062,-0.357855,3.4,-4.5,0,11919,48.11,29.913,14391.1
187538579,0.634767,2.223,92.8242,-0.103576,-0.366652,0.95462,3.36087,-2.14788,-0.0639486,2.5029,-0.118217,0.624874,3.4,-4.5,0,11919,48.134,30.093,14485
187638947,0.634768,2.223,92.8549,-0.10556,-0.430033,0.965247,3.53206,-1.87897,-0.130471,3.38288,0.0415193,1.07257,3.4,-4.5,0,11919,48.134,30.093,14485
187739295,0.634768,2.223,92.8853,-0.116244,-0.446105,0.972908,3.74076,-1.55737,-0.158857,3.80454,0.0663966,1.50501,3.4,-4.5,0,11919,48.134,30.093,14485
187839570,0.634768,2.223,92.9346,-0.136213,-0.433911,0.977084,3.9658,-1.21859,-0.149191,3.81344,0.0954763,1.83542,3.4,-4.5,0,11919,48.134,30.093,14485
187939857,0.634768,2.223,92.9906,-0.158558,-0.404229,0.979371,4.19505,-0.910401,-0.13795,3.79083,-0.258578,1.05061,3.4,-4.5,0,11919,48.134,30.093,14485
188040253,0.634768,2.223,93.0156,-0.168635,-0.351314,0.974863,4.41335,-0.64326,-0.139756,3.15572,-0.36993,1.1968,3.4,-4.5,0,11919,48.134,30.093,14485
188140668,0.634768,2.223,93.0257,-0.17305,-0.297318,0.967682,4.60759,-0.435928,-0.142271,2.46799,-0.380476,1.31072,-4.4,1.5,0,11919,48.134,30.093,14485
188241025,0.634768,2.223,93.0294,-0.164693,-0.235063,0.959845,4.77497,-0.287228,-0.13761,2.06606,-0.70639,0.396051,-4.4,1.5,0,11919,48.134,30.093,14485
188341379,0.634768,2.223,93.0147,-0.0322133,-0.0256712,0.936087,4.91359,-0.186644,-0.0998646,0.701007,-0.3267,1.10994,-4.4,1.5,0,11919,48.134,30.093,14485
188441720,0.634768,2.223,93.0091,0.133379,0.190914,0.948332,4.6559,-0.232651,-0.000682503,-2.11157,1.67015,1.45448,-4.4,1.5,0,11919,48.134,30.093,14485
188542040,0.634768,2.223,92.9888,0.226585,0.29682,0.971524,4.20952,-0.313495,-0.0296222,-3.33429,2.87861,1.0882,-4.4,1.5,0,11919,48.151,30.093,14490.1
188642320,0.634768,2.223,92.9498,0.256069,0.340152,0.981921,3.69691,-0.425589,-0.043374,-3.53117,2.87282,2.71767,-4.4,1.5,0,11919,48.151,30.093,14490.1
188742672,0.634768,2.223,92.9092,0.260414,0.353897,0.984397,3.17715,-0.554715,-0.0808115,-3.98787,3.12637,1.1211,-4.4,1.5,0,11919,48.151,30.093,14490.1
188842996,0.634768,2.223,92.8565,0.263203,0.361734,0.985786,2.68738,-0.686261,-0.160036,-3.67363,2.78551,2.15973,-4.4,1.5,0,11919,48.151,30.093,14490.1
188943278,0.634768,2.223,92.8122,0.27437,0.374498,0.991009,2.14843,-0.841013,-0.173243,-4.00443,2.89742,2.28509,-4.4,1.5,0,11919,48.151,30.093,14490.1
189043639,0.634768,2.223,92.7834,0.288381,0.383541,0.994385,1.59023,-0.991938,-0.210341,-3.96501,3.08155,2.47513,-4.4,1.5,0,11919,48.151,30.093,14490.1
189144147,0.634768,2.223,92.7393,0.289808,0.389086,0.995366,0.9818,-1.14196,-0.201822,-3.91058,3.24077,3.22723,-1.8,-4.6,0,11919,48.151,30.093,14490.1
189244477,0.634768,2.223,92.7005,0.279877,0.396784,0.996289,0.375875,-1.30264,-0.228073,-4.06959,3.33313,2.79287,-1.8,-4.6,0,11919,48.151,30.093,14490.1
189344832,0.634768,2.223,92.6533,0.142797,0.338703,0.943317,-0.270786,-1.50613,-0.0832073,-4.19933,3.07931,3.74764,-1.8,-4.6,0,11919,48.151,30.093,14490.1
189445189,0.634768,2.223,92.6635,-0.0723627,0.202063,0.901,-0.632477,-1.67463,-0.0768651,-3.03552,1.2872,0.456424,-1.8,-4.6,0,11919,48.151,30.093,14490.1
189545561,0.634768,2.223,92.6644,-0.298112,0.0766169,0.913018,-0.678674,-1.85277,-0.180442,-1.40941,-1.37753,-0.341874,-1.8,-4.6,0,11919,48.282,28.087,13561
189645911,0.634768,2.223,92.6589,-0.421473,0.0120896,0.930952,-0.509153,-2.09204,-0.228554,-0.612912,-2.89838,1.61675,-1.8,-4.6,0,11919,48.282,28.087,13561
189746282,0.634768,2.223,92.694,-0.480974,-0.0241532,0.94593,-0.180808,-2.36463,-0.152608,-0.115398,-3.9608,2.15434,-1.8,-4.6,0,11919,48.282,28.087,13561
189846622,0.634768,2.223,92.7682,-0.49304,-0.0336967,0.951138,0.189183,-2.63808,-0.083538,0.055734,-4.11923,2.17979,-1.8,-4.6,0,11919,48.282,28.087,13561
189947016,0.634768,2.223,92.7902,-0.484383,-0.0399277,0.955562,0.541377,-2.88296,-0.0543707,0.157549,-3.82536,2.20325,-1.8,-4.6,0,11919,48.282,28.087,13561
190047377,0.634768,2.223,92.793,-0.471124,-0.0407404,0.956861,0.889825,-3.10217,-0.0478079,0.229021,-3.6702,1.94777,-1.8,-4.6,0,11919,48.282,28.087,13561
190147746,0.634768,2.223,92.8105,-0.440305,-0.0403493,0.95664,1.2182,-3.31111,-0.0446421,0.198657,-3.58672,1.53194,-2.7,-4.2,0,11919,48.282,28.087,13561
190248169,0.634768,2.223,92.8386,-0.38224,-0.0156043,0.951069,1.51131,-3.48471,-0.0339439,0.345944,-3.22306,1.04094,-2.7,-4.2,0,11919,48.282,28.087,13561
190348521,0.634768,2.223,92.8586,-0.292712,0.0592664,0.943784,1.71791,-3.6606,0.00894825,-0.452532,-2.33663,0.976236,-2.7,-4.2,0,11919,48.282,28.087,13561
190448829,0.634768,2.223,92.8544,-0.232956,0.103234,0.937854,1.79956,-3.82293,-0.00620497,-0.954213,-1.51048,0.189755,-2.7,-4.2,0,11919,48.282,28.087,13561
190549204,0.634768,2.223,92.8485,-0.194679,0.121281,0.934832,1.81693,-3.98412,-0.0339085,-1.24885,-0.99161,0.381769,-2.7,-4.2,0,11919,48.282,27.043,13056.9
190649566,0.634768,2.223,92.8438,-0.173638,0.119816,0.933321,1.81068,-4.1415,-0.0488369,-1.36238,-0.834392,-0.14865,-2.7,-4.2,0,11919,48.282,27.043,13056.9
190750187,0.634768,2.223,92.8461,-0.156796,0.102554,0.934515,1.78704,-4.27564,-0.0829629,-1.20543,-0.574606,-0.0154377,-2.7,-4.2,0,11919,48.282,27.043,13056.9
190850635,0.634768,2.223,92.8488,-0.146185,0.0841415,0.935849,1.76752,-4.37954,-0.0961836,-0.953604,-0.401752,0.114647,-2.7,-4.2,0,11919,48.282,27.043,13056.9
190950988,0.634768,2.223,92.8393,-0.137786,0.0675981,0.937586,1.7563,-4.46295,-0.114876,-0.694068,-0.409459,-0.159197,-2.7,-4.2,0,11919,48.282,27.043,13056.9
191051334,0.634768,2.223,92.853,-0.129144,0.0550711,0.938211,1.74035,-4.52914,-0.131166,-0.537043,-0.257163,0.122065,-2.7,-4.2,0,11919,48.282,27.043,13056.9
191151741,0.634769,2.223,92.8537,-0.123749,0.0423506,0.938954,1.72557,-4.58574,-0.121615,-0.475536,-0.249066,0.39044,-2,-4.1,0,11919,48.282,27.043,13056.9
191252109,0.634769,2.223,92.8579,-0.11788,0.00293364,0.941311,1.70502,-4.62872,-0.12017,-0.400399,-0.099342,0.912037,-2,-4.1,0,11919,48.282,27.043,13056.9
191352469,0.634769,2.223,92.8522,-0.110777,-0.0520066,0.942636,1.71302,-4.60769,-0.114186,0.41736,-0.0914854,-0.478694,-2,-4.1,0,11919,48.282,27.043,13056.9
191452830,0.634769,2.223,92.8576,-0.107956,-0.0878944,0.944625,1.75043,-4.54492,-0.124058,0.859517,-0.0462427,0.22973,-2,-4.1,0,11919,48.282,27.043,13056.9
191554313,0.634769,2.223,92.8637,-0.109755,-0.0992396,0.945471,1.80058,-4.45485,-0.124241,1.10945,-0.0785047,0.0428883,-2,-4.1,0,11919,48.282,27.043,13056.9
191658676,0.634769,2.223,92.8638,-0.109464,-0.0922409,0.945757,1.85332,-4.3493,-0.1219,1.19738,0.0707723,0.178652,-2,-4.1,0,11919,48.282,27.043,13056.9
191763683,0.634769,2.223,92.8691,-0.109583,-0.0747978,0.945482,1.90432,-4.24561,-0.115557,0.950812,-0.0256185,-0.0628232,-2,-4.1,0,11919,48.282,27.043,13056.9
191864083,0.634769,2.223,92.8734,-0.116224,-0.054273,0.944282,1.92924,-4.17552,-0.124104,0.726831,-0.049632,-0.108306,-2,-4.1,0,11919,48.282,27.043,13056.9
191964456,0.634769,2.223,92.8757,-0.120377,-0.0366491,0.943228,1.94716,-4.12554,-0.128119,0.556415,-0.0925428,0.11505,-2,-4.1,0,11919,48.282,27.043,13056.9
192064815,0.634769,2.223,92.8601,-0.121542,-0.0242597,0.94116,1.96536,-4.08402,-0.117815,0.478001,-0.107526,0.255544,-2,-4.1,0,11879,48.555,23.236,11282.2
192165241,0.634769,2.223,92.8577,-0.127016,-0.0159686,0.940834,1.97256,-4.04983,-0.108305,0.342843,-0.043191,0.00407475,-2.6,2.2,0,11879,48.555,23.236,11282.2
192265637,0.634769,2.223,92.8543,-0.105423,-0.00783399,0.938378,1.97829,-4.02881,-0.124459,0.198729,-0.139141,0.136505,-2.6,2.2,0,11879,48.555,23.236,11282.2
192366025,0.634769,2.223,92.8488,0.109636,0.00898433,0.938556,1.95469,-3.99146,-0.052041,0.136486,0.59624,0.874588,-2.6,2.2,0,11879,48.555,23.236,11282.2
192466386,0.634769,2.223,92.8795,0.300735,0.029751,0.941773,1.68,-3.80408,-0.0578268,-0.0617645,3.3992,-0.0253371,-2.6,2.2,0,11879,48.555,23.236,11282.2
192566788,0.634769,2.223,92.8801,0.400369,0.0449278,0.943685,1.29773,-3.54912,-0.103122,-0.141663,4.39554,1.41144,-2.6,2.2,0,11879,48.555,23.236,11282.2
192667150,0.634769,2.223,92.8502,0.45121,0.0529746,0.944838,0.839005,-3.26512,-0.127296,-0.31203,4.80308,2.06459,-2.6,2.2,0,11879,48.555,23.236,11282.2
192767497,0.634769,2.223,92.8141,0.483182,0.0592091,0.945583,0.340169,-2.96596,-0.174441,-0.512519,5.31448,2.13613,-2.6,2.2,0,11879,48.555,23.236,11282.2
192867879,0.634769,2.223,92.7613,0.500491,0.0773545,0.951275,-0.204037,-2.64887,-0.209733,-0.611408,5.34428,3.08882,-2.6,2.2,0,11879,48.555,23.236,11282.2
192968260,0.634769,2.223,92.6814,0.503844,0.0802099,0.951705,-0.784356,-2.33157,-0.205471,-0.696754,5.5057,3.18923,-2.6,2.2,0,11879,48.555,23.236,11282.2
193068578,0.634769,2.223,92.6153,0.486208,0.0643675,0.94359,-1.3698,-2.01957,-0.206008,-0.751201,5.24071,3.58709,-2.6,2.2,0,11879,48.351,30.17,14587.5
193169757,0.634769,2.223,92.5555,0.423125,0.0426163,0.93468,-1.93739,-1.6698,-0.138484,-0.477927,5.21743,3.53826,-1.7,4.5,0,11879,48.351,30.17,14587.5
193270764,0.634769,2.223,92.5186,0.336522,0.00825483,0.928882,-2.40212,-1.3731,-0.042896,-0.375577,4.29055,2.7295,-1.7,4.5,0,11879,48.351,30.17,14587.5
193371136,0.634769,2.223,92.5215,0.330024,-0.0493564,0.924418,-2.72186,-1.10349,0.0167713,0.374297,3.5941,1.35457,-1.7,4.5,0,11879,48.351,30.17,14587.5
193471473,0.634769,2.223,92.5689,0.347408,-0.0830572,0.919227,-3.009,-0.794967,0.0204573,0.724535,3.55769,1.59847,-1.7,4.5,0,11879,48.351,30.17,14587.5
193571797,0.634769,2.223,92.5863,0.361676,-0.0981807,0.914736,-3.28484,-0.45703,0.022029,1.06587,3.70531,1.34796,-1.7,4.5,0,11879,48.351,30.17,14587.5
193672102,0.634769,2.223,92.6215,0.351499,-0.0946304,0.914962,-3.56567,-0.100834,0.0313268,1.07941,3.88703,1.35621,-1.7,4.5,0,11879,48.351,30.17,14587.5
193772466,0.634768,2.223,92.6578,0.306131,-0.0793382,0.919437,-3.81743,0.22813,0.0331421,1.00462,3.458,1.23332,-1.7,4.5,0,11879,48.351,30.17,14587.5
193872801,0.634768,2.223,92.6613,0.251189,-0.0599547,0.924855,-4.03587,0.505173,0.0395532,0.821328,3.03821,0.631713,-1.7,4.5,0,11879,48.351,30.17,14587.5
193973145,0.634768,2.223,92.6365,0.196708,-0.042757,0.929525,-4.20203,0.726112,0.0503622,0.700675,2.37892,0.361734,-1.7,4.5,0,11879,48.351,30.17,14587.5
194073514,0.634768,2.223,92.621,0.149103,-0.0275204,0.93309,-4.32962,0.90103,0.0437399,0.504285,1.82736,0.305326,-1.7,4.5,0,11879,48.351,30.17,14587.5
194173928,0.634768,2.223,92.5967,0.112439,-0.0155577,0.936168,-4.42597,1.0241,0.0426383,0.285034,1.35216,0.0951672,-3,-4.1,0,11879,48.496,24.024,11650.7
194274250,0.634768,2.223,92.5795,0.0741989,-0.00327485,0.940007,-4.50113,1.11704,0.0378529,0.154929,1.06542,-0.188146,-3,-4.1,0,11879,48.496,24.024,11650.7
194374597,0.634768,2.223,92.5571,-0.131604,0.0305403,0.938931,-4.54354,1.18247,0.0545194,0.117226,0.444906,0.317946,-3,-4.1,0,11879,48.496,24.024,11650.7
194474943,0.634768,2.223,92.5569,-0.337488,0.0587532,0.929474,-4.39709,1.05246,0.0570362,-0.35859,-2.25633,0.270688,-3,-4.1,0,11879,48.496,24.024,11650.7
194575318,0.634768,2.223,92.517,-0.457728,0.0713184,0.924472,-4.10916,0.778673,-0.00533086,-0.606161,-3.80882,1.35462,-3,-4.1,0,11879,48.496,24.024,11650.7
194675634,0.634768,2.223,92.5064,-0.514534,0.0741655,0.922921,-3.73043,0.41683,-0.00648212,-0.675905,-4.41678,2.84755,-3,-4.1,0,11879,48.496,24.024,11650.7
194775946,0.634768,2.223,92.5079,-0.527444,0.0732136,0.923841,-3.30365,0.0215528,0.00645453,-0.630729,-4.84779,2.94515,-3,-4.1,0,11879,48.496,24.024,11650.7
194876326,0.634768,2.223,92.4901,-0.520325,0.071118,0.925148,-2.87259,-0.383011,0.0212859,-0.606957,-4.85469,2.98098,-3,-4.1,0,11879,48.496,24.024,11650.7
194976671,0.634768,2.223,92.5043,-0.505297,0.0697627,0.926567,-2.45285,-0.773128,0.0391857,-0.58976,-4.6911,2.82448,-3,-4.1,0,11879,48.496,24.024,11650.7
195077054,0.634768,2.223,92.5204,-0.486206,0.0701464,0.927607,-2.07552,-1.14412,0.050067,-0.659263,-4.36619,2.38608,-3,-4.1,0,11879,48.496,24.024,11650.7
195177438,0.634768,2.223,92.5399,-0.469673,0.0722605,0.927017,-1.71186,-1.49386,0.0418824,-0.539587,-4.1463,2.11847,0.7,3.4,0,11879,48.495,28.288,13718.3
195277792,0.634768,2.223,92.5377,-0.439119,0.0673793,0.927072,-1.37181,-1.83399,0.0398717,-0.616059,-4.11008,1.76633,0.7,3.4,0,11879,48.495,28.288,13718.3
195378147,0.634768,2.223,92.5264,-0.243319,-0.019524,0.932175,-1.0652,-2.16424,0.0827034,-0.592057,-3.49947,1.72901,0.7,3.4,0,11879,48.495,28.288,13718.3
195478489,0.634768,2.223,92.523,0.0594247,-0.148491,0.926283,-0.912592,-2.22059,0.148231,0.751155,-0.847014,0.318867,0.7,3.4,0,11879,48.495,28.288,13718.3
195578798,0.634768,2.223,92.5468,0.261383,-0.214465,0.907171,-0.958917,-1.97662,0.0902832,2.01086,2.33269,-0.213567,0.7,3.4,0,11879,48.495,28.288,13718.3
195679153,0.634768,2.223,92.5417,0.360997,-0.245506,0.893772,-1.09936,-1.60619,0.0120719,2.23977,3.36911,1.58474,0.7,3.4,0,11879,48.495,28.288,13718.3
195780835,0.634768,2.223,92.5387,0.400336,-0.25993,0.887657,-1.30276,-1.12951,-0.00356288,2.48644,4.11917,2.34828,0.7,3.4,0,11879,48.495,28.288,13718.3
195886527,0.634768,2.223,92.5828,0.400072,-0.263874,0.888035,-1.55617,-0.532645,-0.0120453,2.64413,4.22836,2.2132,0.7,3.4,0,11879,48.495,28.288,13718.3
195986932,0.634768,2.223,92.5769,0.38461,-0.264134,0.889914,-1.76592,-0.0363995,-0.016977,2.54214,4.02073,2.52006,0.7,3.4,0,11879,48.495,28.288,13718.3
196087291,0.634768,2.223,92.5816,0.364977,-0.265675,0.89173,-1.96032,0.451084,-0.0143517,2.51665,3.76627,2.33036,0.7,3.4,0,11879,48.495,28.288,13718.3
196187650,0.634767,2.223,92.5639,0.334478,-0.258352,0.896832,-2.13648,0.927571,-0.0168528,2.56004,3.55944,2.1737,-2.3,-4.7,0,11835,48.185,29.796,14357.2
196287999,0.634767,2.223,92.5337,0.25375,-0.222449,0.912657,-2.29955,1.37311,-0.0133563,2.34321,3.25772,2.07221,-2.3,-4.7,0,11835,48.185,29.796,14357.2
196388395,0.634767,2.223,92.5191,0.00304928,-0.101737,0.944188,-2.40066,1.69506,0.0363117,1.7012,1.97733,0.974112,-2.3,-4.7,0,11835,48.185,29.796,14357.2
196488740,0.634767,2.223,92.4962,-0.274807,0.0444306,0.932419,-2.3263,1.66463,0.0666592,0.027567,-1.51083,0.0305645,-2.3,-4.7,0,11835,48.185,29.796,14357.2
196589079,0.634767,2.223,92.4674,-0.41058,0.10897,0.913795,-2.13944,1.39838,0.011772,-0.971133,-3.21613,1.35463,-2.3,-4.7,0,11835,48.185,29.796,14357.2
196689422,0.634767,2.223,92.4702,-0.473514,0.137933,0.902333,-1.88385,1.02355,0.00454175,-1.30853,-4.0285,2.43622,-2.3,-4.7,0,11835,48.185,29.796,14357.2
196789724,0.634767,2.223,92.4794,-0.487266,0.144197,0.900129,-1.60129,0.587263,0.0229369,-1.54306,-4.33554,2.73343,-2.3,-4.7,0,11835,48.185,29.796,14357.2
196890088,0.634767,2.223,92.4879,-0.478202,0.142094,0.900389,-1.31408,0.16053,0.0438535,-1.40367,-4.14843,2.89897,-2.3,-4.7,0,11835,48.185,29.796,14357.2
196990403,0.634767,2.223,92.4825,-0.462041,0.13501,0.903003,-1.05246,-0.255897,0.0562859,-1.50137,-4.16331,2.16672,-2.3,-4.7,0,11835,48.185,29.796,14357.2
197090741,0.634767,2.223,92.4938,-0.444825,0.12411,0.907441,-0.801259,-0.653291,0.0530283,-1.41121,-3.84246,2.30983,-2.3,-4.7,0,11835,48.185,29.796,14357.2
197191145,0.634767,2.223,92.5117,-0.429428,0.110247,0.913334,-0.551122,-1.02711,0.0742469,-1.18308,-3.61606,2.02947,4.3,0.8,0,11835,48.085,31.79,15286.2
197291466,0.634767,2.223,92.5405,-0.394356,0.0743499,0.923204,-0.310086,-1.37268,0.079502,-1.09643,-3.55108,1.67123,4.3,0.8,0,11835,48.085,31.79,15286.2
197391991,0.634767,2.223,92.559,-0.226678,-0.0981185,0.935859,-0.0548482,-1.67439,0.174108,-0.520325,-3.04636,1.92518,4.3,0.8,0,11835,48.085,31.79,15286.2
197492397,0.634767,2.223,92.5864,-0.00479513,-0.299722,0.927813,0.110839,-1.6425,0.178369,1.82683,-0.669166,0.0494961,4.3,0.8,0,11835,48.085,31.79,15286.2
197592803,0.634767,2.223,92.5941,0.123068,-0.396888,0.91237,0.208038,-1.33104,0.0979898,3.64286,1.3301,-0.212293,4.3,0.8,0,11835,48.085,31.79,15286.2
197693165,0.634767,2.223,92.5832,0.178959,-0.435778,0.902903,0.276639,-0.913511,0.0104249,3.84831,1.95874,1.69071,4.3,0.8,0,11835,48.085,31.79,15286.2
197793502,0.634767,2.223,92.5957,0.19743,-0.447726,0.901255,0.3399,-0.423166,-0.0119751,4.19419,2.30121,1.89185,4.3,0.8,0,11835,48.085,31.79,15286.2
197893861,0.634767,2.223,92.6137,0.187128,-0.442531,0.905816,0.395498,0.0910161,-0.0223658,4.10542,2.28394,2.40646,4.3,0.8,0,11835,48.085,31.79,15286.2
197994214,0.634767,2.223,92.6058,0.168979,-0.433656,0.910608,0.451892,0.59278,-0.0173561,4.09594,2.22091,2.12694,4.3,0.8,0,11835,48.085,31.79,15286.2
198094551,0.634767,2.223,92.6079,0.14856,-0.426664,0.91484,0.510969,1.07714,-0.0296271,3.78229,2.04098,2.4992,4.3,0.8,0,11835,48.085,31.79,15286.2
198195662,0.634767,2.223,92.6249,0.1236,-0.417426,0.919742,0.583086,1.5487,-0.0275781,3.82776,1.87605,1.9979,-0.3,2.7,0,11835,48.013,31.974,15351.7
198297166,0.634767,2.223,92.6129,0.0949885,-0.394982,0.926857,0.666386,1.98725,-0.0404085,3.64045,1.50123,1.88407,-0.3,2.7,0,11835,48.013,31.974,15351.7
198397545,0.634767,2.223,92.6098,0.134163,-0.201912,0.921029,0.770727,2.40975,0.0124139,3.41332,1.25799,2.27241,-0.3,2.7,0,11835,48.013,31.974,15351.7
198497879,0.634767,2.223,92.6087,0.205754,0.108904,0.940396,0.661709,2.62963,0.0948138,0.522094,2.0636,0.132905,-0.3,2.7,0,11835,48.013,31.974,15351.7
198598248,0.634767,2.223,92.5888,0.251342,0.294606,0.972187,0.286853,2.60758,0.0535369,-2.62424,2.71772,0.417586,-0.3,2.7,0,11835,48.013,31.974,15351.7
198698588,0.634767,2.223,92.5681,0.276001,0.386444,0.993552,-0.206079,2.47312,-0.0120466,-3.6996,2.76016,2.14713,-0.3,2.7,0,11835,48.013,31.974,15351.7
198798958,0.634767,2.223,92.5533,0.260706,0.396121,0.996375,-0.779074,2.2829,-0.0377292,-4.36749,2.93675,2.60003,-0.3,2.7,0,11835,48.013,31.974,15351.7
198899310,0.634767,2.223,92.5335,0.209078,0.345498,0.983197,-1.32825,2.07732,-0.0102842,-4.08784,2.56564,2.65326,-0.3,2.7,0,11835,48.013,31.974,15351.7
198999651,0.634767,2.223,92.5236,0.150308,0.269464,0.966715,-1.76999,1.89336,4.76744e-05,-3.53852,2.08276,1.55119,-0.3,2.7,0,11835,48.013,31.974,15351.7
199100072,0.634767,2.223,92.501,0.105176,0.192615,0.95344,-2.09329,1.74574,0.0127134,-2.78606,1.50148,0.494443,-0.3,2.7,0,11835,48.013,31.974,15351.7
199200463,0.634767,2.223,92.4925,0.0701159,0.124225,0.94447,-2.33567,1.64718,0.0182062,-1.88864,1.113,0.326871,4.6,-3.6,0,11835,48.013,31.974,15351.7
199300818,0.634767,2.223,92.5072,0.0331023,0.0593263,0.938966,-2.50245,1.57803,0.0279616,-1.12261,0.703995,0.1683,4.6,-3.6,0,11831,48.013,31.979,15354.1
199401138,0.634767,2.223,92.4969,-0.114511,-0.0780492,0.940365,-2.59284,1.53945,0.0590756,-0.347047,0.157372,0.68703,4.6,-3.6,0,11831,48.013,31.979,15354.1
199501499,0.634767,2.223,92.4977,-0.259936,-0.179845,0.958903,-2.43492,1.51955,0.0608004,1.19405,-1.66167,0.136122,4.6,-3.6,0,11831,48.013,31.979,15354.1
199601859,0.634767,2.223,92.5363,-0.349041,-0.242427,0.977016,-2.10072,1.49233,0.0492588,1.97158,-2.78613,1.232,4.6,-3.6,0,11831,48.013,31.979,15354.1
199702197,0.634767,2.223,92.558,-0.393903,-0.273867,0.987815,-1.67318,1.46683,0.0470141,2.46527,-3.48092,1.52993,4.6,-3.6,0,11831,48.013,31.979,15354.1
199802556,0.634767,2.223,92.5881,-0.40857,-0.287317,0.992573,-1.20644,1.4558,0.0405205,2.56881,-3.51007,2.10133,4.6,-3.6,0,11831,48.013,31.979,15354.1
199902910,0.634767,2.223,92.5869,-0.403748,-0.286999,0.992124,-0.606043,1.44346,0.051194,2.65011,-3.49524,2.35913,4.6,-3.6,0,11831,48.013,31.979,15354.1
200003232,0.634767,2.223,92.5669,-0.391916,-0.282196,0.990224,-0.211666,1.43596,0.0620768,2.6936,-3.6047,2.0053,4.6,-3.6,0,11831,48.013,31.979,15354.1
200103549,0.634767,2.223,92.5569,-0.378178,-0.273462,0.986975,0.250248,1.42663,0.0449363,2.49683,-3.42935,1.58233,4.6,-3.6,0,11831,48.013,31.979,15354.1
200203938,0.634767,2.223,92.5256,-0.364421,-0.269996,0.986046,0.700405,1.4137,0.0404898,2.2419,-3.08418,2.19075,0.7,0.8,0,11831,48.013,31.979,15354.1
200304356,0.634767,2.223,92.5157,-0.344667,-0.262631,0.983448,1.20064,1.41933,0.0366011,2.36407,-2.9173,1.57559,0.7,0.8,0,11831,47.998,32.31,15508.2
200404714,0.634767,2.223,92.5099,-0.190669,-0.127162,0.948591,1.5892,1.4238,0.0591547,1.91066,-2.51548,1.47008,0.7,0.8,0,11831,47.998,32.31,15508.2
200505106,0.634767,2.223,92.5087,0.0694899,0.0825917,0.939442,1.62612,1.38431,0.131265,-0.389159,0.0308826,0.334052,0.7,0.8,0,11831,47.998,32.31,15508.2
200605450,0.634767,2.223,92.5013,0.217682,0.178724,0.956465,1.34009,1.34377,0.0938926,-2.03863,2.35101,0.240307,0.7,0.8,0,11831,47.998,32.31,15508.2
200705805,0.634767,2.223,92.4757,0.260396,0.203405,0.964352,0.948761,1.31813,0.0630989,-2.30412,2.87736,1.6097,0.7,0.8,0,11831,47.998,32.31,15508.2
200806223,0.634767,2.223,92.4896,0.236242,0.191768,0.961911,0.530894,1.28895,0.0428426,-2.44491,3.09677,0.994625,0.7,0.8,0,11831,47.998,32.31,15508.2
200906600,0.634767,2.223,92.5164,0.17243,0.161836,0.955012,0.170996,1.24991,0.0406355,-2.15051,2.52979,0.883347,0.7,0.8,0,11831,47.998,32.31,15508.2
201006946,0.634767,2.223,92.5328,0.107983,0.120528,0.947836,-0.0987813,1.19474,0.0318494,-1.79279,1.7401,0.419064,0.7,0.8,0,11831,47.998,32.31,15508.2
201107243,0.634767,2.223,92.5375,0.0609192,0.0788319,0.943058,-0.292133,1.13485,0.040489,-1.33976,1.07647,0.388784,0.7,0.8,0,11831,47.998,32.31,15508.2
201207615,0.634767,2.223,92.5445,0.0274132,0.0370954,0.940454,-0.439308,1.09335,0.0474211,-0.88841,0.726084,0.0207785,-1.7,1.4,0,11831,47.998,32.31,15508.2
201307948,0.634767,2.223,92.5239,0.0130302,0.0187712,0.940546,-0.546749,1.06754,0.0496798,-0.473187,0.464121,0.48745,-1.7,1.4,0,11787,48.006,30.771,14771.9
201408274,0.634767,2.223,92.5299,0.0384048,0.163718,0.942823,-0.647681,1.03183,0.0780451,-0.904847,0.521764,0.345192,-1.7,1.4,0,11787,48.006,30.771,14771.9
201508622,0.634767,2.223,92.5349,0.0677747,0.294722,0.948691,-0.900882,0.852764,0.0592842,-2.83103,0.845095,0.275066,-1.7,1.4,0,11787,48.006,30.771,14771.9
201608886,0.634767,2.223,92.5334,0.0745064,0.341928,0.9518,-1.23251,0.611055,0.0212417,-3.54516,1.03885,0.981019,-1.7,1.4,0,11787,48.006,30.771,14771.9
201709193,0.634767,2.223,92.5151,0.0643932,0.326973,0.94978,-1.576,0.357747,0.0186745,-3.53256,1.03437,1.38295,-1.7,1.4,0,11787,48.006,30.771,14771.9
201809548,0.634767,2.223,92.499,0.0470631,0.275086,0.945614,-1.88744,0.135826,0.0244309,-3.0909,0.994946,1.10577,-1.7,1.4,0,11787,48.006,30.771,14771.9
201909884,0.634767,2.223,92.4973,0.0235007,0.210036,0.941786,-2.13854,-0.0468464,0.0226158,-2.55897,0.713578,0.862363,-1.7,1.4,0,11787,48.006,30.771,14771.9
202010184,0.634767,2.223,92.4936,0.00305578,0.149415,0.939957,-2.32349,-0.194809,0.0605352,-1.96055,0.4733,0.298101,-1.7,1.4,0,11787,48.006,30.771,14771.9
202110632,0.634767,2.223,92.5013,-0.00764383,0.101358,0.938858,-2.45385,-0.297595,0.046955,-1.35369,0.226755,0.146816,-1.7,1.4,0,11787,48.006,30.771,14771.9
202211044,0.634767,2.223,92.528,-0.0177127,0.0661589,0.938286,-2.54135,-0.371921,0.0555444,-0.884848,0.163095,-0.0186415,0.8,3.3,0,11787,48.006,30.771,14771.9
202311406,0.634767,2.223,92.4951,-0.0146799,0.0193398,0.940261,-2.61412,-0.422168,0.051411,-0.587359,0.116161,0.450486,0.8,3.3,0,11787,47.957,32.34,15509.3
202411769,0.634766,2.223,92.4968,0.0838308,-0.150639,0.932608,-2.64997,-0.427023,0.104129,0.263304,0.334793,0.0689436,0.8,3.3,0,11787,47.957,32.34,15509.3
202512196,0.634766,2.223,92.4934,0.17928,-0.277197,0.912092,-2.66835,-0.19193,0.0458153,2.12737,1.50233,0.0201187,0.8,3.3,0,11787,47.957,32.34,15509.3
202612574,0.634766,2.223,92.4865,0.23392,-0.34501,0.894918,-2.68322,0.185172,0.0118777,2.94028,2.12562,1.39627,0.8,3.3,0,11787,47.957,32.34,15509.3
202712915,0.634766,2.223,92.4902,0.250911,-0.363131,0.889424,-2.70017,0.653888,0.0256987,3.29191,2.52758,2.14995,0.8,3.3,0,11787,47.957,32.34,15509.3
202813288,0.634766,2.223,92.4991,0.221648,-0.331029,0.898523,-2.7068,1.12861,0.0471587,3.21112,2.36559,2.31868,0.8,3.3,0,11787,47.957,32.34,15509.3
202913648,0.634766,2.223,92.4988,0.174291,-0.279463,0.911243,-2.71067,1.53532,0.0680887,2.97841,2.15336,1.14247,0.8,3.3,0,11787,47.957,32.34,15509.3
203014006,0.634766,2.223,92.4927,0.127639,-0.225792,0.921238,-2.71294,1.85614,0.0687281,2.30999,1.64855,0.780812,0.8,3.3,0,11787,47.957,32.34,15509.3
203114351,0.634766,2.223,92.4785,0.0870224,-0.179111,0.927388,-2.70528,2.09907,0.0785976,1.77361,1.1782,0.540457,0.8,3.3,0,11787,47.957,32.34,15509.3
203214781,0.634766,2.223,92.4852,0.0565417,-0.140157,0.931338,-2.69422,2.28981,0.0807773,1.4728,0.833255,-0.0330389,1.9,1.5,0,11787,47.957,32.34,15509.3
203315122,0.634766,2.223,92.4794,0.0188816,-0.114879,0.935673,-2.68193,2.41846,0.0884602,0.902082,0.494333,0.276156,1.9,1.5,0,11787,48.213,28.428,13706
203415457,0.634766,2.223,92.4898,-0.11054,-0.157375,0.949714,-2.6482,2.51808,0.11278,0.897964,-0.0592594,-0.00921267,1.9,1.5,0,11787,48.213,28.428,13706
203515798,0.634766,2.223,92.495,-0.225801,-0.205063,0.962136,-2.44798,2.56379,0.0809773,1.48027,-1.56946,0.269389,1.9,1.5,0,11787,48.213,28.428,13706
203616239,0.634766,2.223,92.5021,-0.277397,-0.220621,0.965819,-2.15205,2.58612,0.0488732,1.77574,-2.33982,0.750085,1.9,1.5,0,11787,48.213,28.428,13706
203716629,0.634766,2.223,92.5473,-0.282264,-0.213174,0.961837,-1.79461,2.59666,0.0632691,1.95145,-2.75445,1.07332,1.9,1.5,0,11787,48.213,28.428,13706
203816991,0.634766,2.223,92.5909,-0.249431,-0.191587,0.95432,-1.46517,2.57636,0.0549181,1.66559,-2.69926,0.360336,1.9,1.5,0,11787,48.213,28.428,13706
203917393,0.634766,2.223,92.5951,-0.200746,-0.166684,0.947306,-1.19215,2.55845,0.0648621,1.28874,-2.09922,0.943249,1.9,1.5,0,11787,48.213,28.428,13706
204017759,0.634766,2.223,92.5757,-0.154456,-0.144325,0.943524,-0.979661,2.53393,0.0647115,1.01892,-1.71418,0.232154,1.9,1.5,0,11787,48.213,28.428,13706
204118085,0.634766,2.223,92.5499,-0.119839,-0.126909,0.941746,-0.828886,2.53656,0.0543786,0.904869,-1.08819,0.0432849,1.9,1.5,0,11787,48.213,28.428,13706
204218496,0.634766,2.223,92.5316,-0.0946121,-0.113792,0.940831,-0.713493,2.53094,0.0393024,0.665316,-0.809565,0.216371,-0.3,-3.3,0,11787,48.213,28.428,13706
204318838,0.634766,2.223,92.5257,-0.0844046,-0.0939707,0.939837,-0.613548,2.52116,0.04532,0.574749,-0.776547,0.0466696,-0.3,-3.3,0,11787,48.213,28.428,13706
204419104,0.634766,2.223,92.5196,-0.184562,-0.00234688,0.941332,-0.536676,2.50341,0.0703966,0.26715,-0.816365,0.0126592,-0.3,-3.3,0,11787,48.21,27.794,13399.5
204519479,0.634766,2.223,92.521,-0.298292,0.0812433,0.927384,-0.425097,2.30034,0.0602851,-0.934439,-2.05477,0.538786,-0.3,-3.3,0,11787,48.21,27.794,13399.5
204619822,0.634766,2.223,92.5273,-0.377269,0.129552,0.911341,-0.271679,1.97448,0.03328,-1.53004,-2.98325,1.09753,-0.3,-3.3,0,11787,48.21,27.794,13399.5
204720200,0.634766,2.223,92.5387,-0.418565,0.151665,0.901334,-0.0920289,1.56426,0.0222479,-1.94908,-3.53927,1.71847,-0.3,-3.3,0,11787,48.21,27.794,13399.5
204820604,0.634766,2.223,92.556,-0.434351,0.155409,0.89784,0.0931182,1.11891,0.0172504,-2.06539,-3.63394,1.95484,-0.3,-3.3,0,11787,48.21,27.794,13399.5
204920957,0.634766,2.223,92.5677,-0.434392,0.144583,0.900031,0.286471,0.680871,0.010427,-1.9679,-3.64324,2.01851,-0.3,-3.3,0,11787,48.21,27.794,13399.5
205021289,0.634766,2.223,92.5802,-0.426021,0.126398,0.905056,0.489613,0.253887,0.00550969,-1.7911,-3.71444,1.94293,-0.3,-3.3,0,11787,48.21,27.794,13399.5
205121652,0.634766,2.223,92.5844,-0.417377,0.105989,0.911271,0.685417,-0.142279,-0.00355344,-1.55863,-3.45017,1.97716,-0.3,-3.3,0,11787,48.21,27.794,13399.5
205222047,0.634766,2.223,92.5947,-0.408306,0.083034,0.917646,0.890358,-0.51147,0.00452579,-1.33281,-3.43059,1.70635,-1.5,-1.3,0,11787,48.21,27.794,13399.5
205322410,0.634766,2.223,92.6112,-0.389564,0.0709409,0.921721,1.0802,-0.833751,-0.00768218,-1.12214,-3.3804,0.992505,-1.5,-1.3,0,11787,48.21,27.794,13399.5
205422769,0.634766,2.223,92.6404,-0.241797,0.159621,0.921656,1.28913,-1.14534,0.0641639,-0.97905,-3.01742,1.80844,-1.5,-1.3,0,11787,48.123,29.119,14012.9
205523120,0.634766,2.223,92.6797,-0.0575118,0.205948,0.936257,1.22967,-1.41884,0.0855259,-2.21615,-0.828591,0.157386,-1.5,-1.3,0,11787,48.123,29.119,14012.9
205623473,0.634766,2.223,92.7084,0.0438798,0.201945,0.942765,1.02711,-1.57806,0.0276546,-2.2566,0.775643,-0.410248,-1.5,-1.3,0,11787,48.123,29.119,14012.9
205723833,0.634766,2.223,92.714,0.0796068,0.173669,0.941266,0.717779,-1.70451,-0.00694284,-1.98475,1.41913,0.549697,-1.5,-1.3,0,11787,48.123,29.119,14012.9
205824306,0.634766,2.223,92.723,0.0717634,0.138192,0.937175,0.466418,-1.76485,-0.0329433,-1.59928,1.48414,0.396695,-1.5,-1.3,0,11787,48.123,29.119,14012.9
205924662,0.634766,2.223,92.7395,0.0438247,0.10399,0.934366,0.252195,-1.80588,-0.062854,-1.26434,1.2769,-0.105991,-1.5,-1.3,0,11787,48.123,29.119,14012.9
206025000,0.634766,2.223,92.7435,0.0150788,0.0721293,0.933265,0.090724,-1.83694,-0.0867137,-0.897781,0.887356,0.106518,-1.5,-1.3,0,11787,48.123,29.119,14012.9
206125281,0.634766,2.223,92.7434,-0.0101167,0.0472574,0.933197,-0.0403404,-1.85362,-0.0897849,-0.630581,0.638218,-0.0197996,-1.5,-1.3,0,11787,48.123,29.119,14012.9
206225666,0.634766,2.223,92.7425,-0.0349331,0.0293402,0.93542,-0.144673,-1.86518,-0.0883578,-0.485328,0.412902,-0.0432544,4.2,-1.9,0,11787,48.123,29.119,14012.9
206326032,0.634766,2.223,92.7573,-0.0553294,-0.00688396,0.937917,-0.225661,-1.87751,-0.0870587,-0.348522,0.258492,0.341095,4.2,-1.9,0,11787,48.123,29.119,14012.9
206426408,0.634766,2.223,92.7801,-0.0577234,-0.178895,0.941321,-0.244515,-1.82901,-0.0578092,0.853952,0.0657512,0.176218,4.2,-1.9,0,11787,48.184,27.853,13420.7
206526779,0.634766,2.223,92.8105,-0.0570388,-0.323542,0.949042,-0.155137,-1.61682,-0.0968952,2.55297,0.199461,0.316648,4.2,-1.9,0,11787,48.184,27.853,13420.7
206627133,0.634766,2.223,92.7971,-0.0651379,-0.414731,0.9573,0.0319044,-1.29624,-0.116654,3.772,0.0548027,1.31715,4.2,-1.9,0,11787,48.184,27.853,13420.7
206727477,0.634766,2.223,92.7961,-0.0727336,-0.457072,0.964611,0.260819,-0.92109,-0.132142,3.96622,0.16107,2.11803,4.2,-1.9,0,11787,48.184,27.853,13420.7
206827831,0.634766,2.223,92.8261,-0.086981,-0.462314,0.969078,0.53285,-0.504641,-0.0963359,4.2434,0.0166331,2.27543,4.2,-1.9,0,11787,48.184,27.853,13420.7
206928226,0.634766,2.223,92.8086,-0.102859,-0.449817,0.971889,0.800699,-0.117464,-0.0870509,4.12181,-0.0312339,2.19051,4.2,-1.9,0,11787,48.184,27.853,13420.7
207028592,0.634766,2.223,92.804,-0.123204,-0.433948,0.973173,1.07409,0.238817,-0.0874864,4.0873,-0.280936,1.73701,4.2,-1.9,0,11787,48.184,27.853,13420.7
207128943,0.634766,2.223,92.7972,-0.140046,-0.417205,0.974226,1.35261,0.563694,-0.100664,3.78363,-0.404309,1.63648,4.2,-1.9,0,11787,48.184,27.853,13420.7
207229349,0.634766,2.223,92.7986,-0.158416,-0.402284,0.974735,1.63659,0.856428,-0.100596,3.60755,-0.65041,1.54381,-3.8,-3.5,0,11787,48.184,27.853,13420.7
207329707,0.634766,2.223,92.7675,-0.170147,-0.357729,0.97456,1.93354,1.12392,-0.107265,3.53067,-0.854497,1.45777,-3.8,-3.5,0,11787,48.184,27.853,13420.7
207430055,0.634766,2.223,92.7408,-0.165074,-0.107161,0.963114,2.22688,1.34401,-0.0247371,2.7357,-0.92153,1.73263,-3.8,-3.5,0,11746,48.085,29.38,14127.4
207530444,0.634766,2.223,92.7468,-0.16744,0.189489,0.929949,2.29022,1.26246,0.0249353,-0.934741,-1.01848,0.049584,-3.8,-3.5,0,11746,48.085,29.38,14127.4
207630859,0.634766,2.223,92.7438,-0.175115,0.340864,0.908271,2.17959,0.955156,-0.0228875,-3.23404,-0.917343,0.833085,-3.8,-3.5,0,11746,48.085,29.38,14127.4
207731237,0.634766,2.223,92.7061,-0.183322,0.419772,0.896027,2.00473,0.541346,-0.0608499,-4.14919,-0.963722,1.86446,-3.8,-3.5,0,11746,48.085,29.38,14127.4
207831620,0.634766,2.223,92.6973,-0.18306,0.448917,0.890025,1.7908,0.0638374,-0.0747772,-4.57048,-0.953341,2.25208,-3.8,-3.5,0,11746,48.085,29.38,14127.4
207932038,0.634766,2.223,92.7219,-0.18252,0.447024,0.886997,1.55882,-0.423583,-0.0936217,-4.56862,-0.780604,2.51931,-3.8,-3.5,0,11746,48.085,29.38,14127.4
208032426,0.634766,2.223,92.727,-0.183588,0.432024,0.887221,1.34479,-0.901314,-0.0966901,-4.34416,-0.886453,2.3305,-3.8,-3.5,0,11746,48.085,29.38,14127.4
208132812,0.634766,2.223,92.7328,-0.181725,0.414655,0.887814,1.13033,-1.36417,-0.0875859,-4.25238,-0.875002,2.18549,-3.8,-3.5,0,11746,48.085,29.38,14127.4
208233201,0.634766,2.223,92.7426,-0.191907,0.391691,0.889601,0.933392,-1.81746,-0.0787762,-4.06272,-0.926925,1.94939,-4.7,-3.9,0,11746,48.085,29.38,14127.4
208333548,0.634766,2.223,92.746,-0.201597,0.366216,0.893421,0.752396,-2.25364,-0.0693786,-3.83141,-1.0307,1.49007,-4.7,-3.9,0,11746,48.085,29.38,14127.4
208433947,0.634766,2.223,92.7598,-0.210617,0.347129,0.896876,0.603741,-2.65812,-0.0801768,-3.48491,-1.04582,1.51979,-4.7,-3.9,0,11746,48.175,27.471,13234.2
208534302,0.634766,2.223,92.7786,-0.220576,0.327832,0.90041,0.477734,-3.05044,-0.0761074,-3.24469,-1.19502,1.11499,-4.7,-3.9,0,11746,48.175,27.471,13234.2
208634650,0.634766,2.223,92.809,-0.233156,0.311734,0.901909,0.361445,-3.4169,-0.0837753,-2.93284,-1.08652,1.70319,-4.7,-3.9,0,11746,48.175,27.471,13234.2
208734993,0.634766,2.223,92.8433,-0.243985,0.299133,0.902096,0.284081,-3.78704,-0.0656983,-2.76528,-1.45101,1.26709,-4.7,-3.9,0,11746,48.175,27.471,13234.2
208835374,0.634766,2.223,92.8661,-0.257733,0.28909,0.902102,0.218628,-4.13075,-0.0760796,-2.67302,-1.53083,0.842904,-4.7,-3.9,0,11746,48.175,27.471,13234.2
208935728,0.634766,2.223,92.8764,-0.268253,0.27401,0.904145,0.16754,-4.4754,-0.0927433,-2.53037,-1.62297,1.04414,-4.7,-3.9,0,11746,48.175,27.471,13234.2
209036083,0.634766,2.223,92.9011,-0.258746,0.243879,0.909416,0.128231,-4.81309,-0.0925544,-2.47497,-1.62588,0.98739,-4.7,-3.9,0,11746,48.175,27.471,13234.2
209136417,0.634766,2.223,92.9058,-0.238724,0.211097,0.9165,0.106176,-5.10261,-0.0909118,-2.07815,-1.50353,0.978976,-4.7,-3.9,0,11746,48.175,27.471,13234.2
209236806,0.634766,2.223,92.8987,-0.218435,0.176975,0.923438,0.0783799,-5.34251,-0.0878413,-1.73964,-1.19408,0.774618,2.7,4,0,11746,48.175,27.471,13234.2
209337175,0.634766,2.223,92.879,-0.193347,0.13338,0.9311,0.0610472,-5.52731,-0.110646,-1.32771,-1.06765,0.270902,2.7,4,0,11746,48.175,27.471,13234.2
209437529,0.634766,2.223,92.8728,-0.021717,-0.0459862,0.94235,0.0733074,-5.66842,-0.0424332,-0.68772,-0.769581,1.09358,2.7,4,0,11746,48.175,27.471,13234.2
209537883,0.634766,2.223,92.8751,0.172967,-0.21595,0.919594,0.0272364,-5.46789,0.0149215,1.69545,1.68587,0.35709,2.7,4,0,11746,48.001,30.4,14592.3
209638228,0.634766,2.223,92.8299,0.272195,-0.296264,0.894094,-0.0650473,-5.05238,-0.0612592,2.78778,2.94652,1.2324,2.7,4,0,11746,48.001,30.4,14592.3
209738546,0.634766,2.223,92.785,0.328995,-0.338387,0.876307,-0.176731,-4.51959,-0.096147,3.29782,3.57755,2.20323,2.7,4,0,11746,48.001,30.4,14592.3
209838912,0.634766,2.223,92.7456,0.362165,-0.354224,0.868232,-0.294602,-3.92478,-0.123243,3.61018,3.87937,2.52058,2.7,4,0,11746,48.001,30.4,14592.3
209939258,0.634766,2.223,92.6972,0.381378,-0.355156,0.867007,-0.437962,-3.31104,-0.13919,3.48394,4.06805,2.84207,2.7,4,0,11746,48.001,30.4,14592.3
210039607,0.634766,2.223,92.6404,0.392022,-0.354184,0.866258,-0.58344,-2.69635,-0.198427,3.37746,4.05518,2.95013,2.7,4,0,11746,48.001,30.4,14592.3
210139970,0.634766,2.223,92.6089,0.384943,-0.354787,0.866002,-0.749031,-2.01929,-0.165506,3.52832,4.09101,3.77929,2.7,4,0,11746,48.001,30.4,14592.3
210240390,0.634766,2.223,92.6241,0.365212,-0.342328,0.872097,-0.903216,-1.35846,-0.12893,3.33861,3.99248,3.60807,-3,-1.7,0,11746,48.001,30.4,14592.3
210340725,0.634766,2.223,92.6499,0.33343,-0.320204,0.881612,-1.05603,-0.745401,-0.0914564,3.16383,3.8257,3.04649,-3,-1.7,0,11746,48.001,30.4,14592.3
210441125,0.634766,2.223,92.6573,0.166259,-0.164246,0.925537,-1.18542,-0.178168,-0.060491,2.97666,3.5018,2.4086,-3,-1.7,0,11746,48.001,30.4,14592.3
210541444,0.634766,2.223,92.6502,-0.0916351,0.0769282,0.934382,-1.26107,0.0600855,0.00365892,0.807472,1.28954,0.317463,-3,-1.7,0,11746,48.079,28.853,13872.2
210641808,0.634766,2.223,92.65,-0.278999,0.227487,0.904454,-1.25988,-0.101594,-0.01456,-1.81005,-1.53785,-0.0729188,-3,-1.7,0,11746,48.079,28.853,13872.2
210742143,0.634766,2.223,92.6329,-0.379905,0.294045,0.882215,-1.19907,-0.461065,-0.0355058,-2.62382,-2.71908,1.70577,-3,-1.7,0,11746,48.079,28.853,13872.2
210842453,0.634766,2.223,92.6403,-0.41422,0.319196,0.87387,-1.09563,-0.936473,-0.0276158,-3.06489,-3.27384,2.55072,-3,-1.7,0,11746,48.079,28.853,13872.2
210942822,0.634766,2.223,92.6457,-0.412896,0.318774,0.875594,-0.994974,-1.44645,-0.00583622,-3.28041,-3.34764,2.53294,-3,-1.7,0,11746,48.079,28.853,13872.2
211043171,0.634766,2.223,92.6314,-0.37807,0.294819,0.886588,-0.885981,-1.9398,0.00167506,-3.14658,-3.35724,2.24147,-3,-1.7,0,11746,48.079,28.853,13872.2
211143557,0.634766,2.223,92.6545,-0.321905,0.250756,0.903261,-0.805232,-2.38211,0.0212776,-2.84864,-2.80028,1.86503,-3,-1.7,0,11746,48.079,28.853,13872.2
211243958,0.634766,2.223,92.6753,-0.262807,0.199808,0.917535,-0.732294,-2.73736,0.0391817,-2.23465,-2.30012,1.11196,2.3,-0.2,0,11746,48.079,28.853,13872.2
211344376,0.634766,2.223,92.6914,-0.206826,0.135271,0.930544,-0.677827,-2.99878,0.042736,-1.61306,-1.63794,0.715197,2.3,-0.2,0,11746,48.079,28.853,13872.2
211444724,0.634766,2.223,92.7118,-0.102353,-0.0885505,0.941835,-0.629416,-3.18574,0.107002,-0.787332,-1.1076,-0.0411726,2.3,-0.2,0,11746,48.079,28.853,13872.2
211545083,0.634766,2.223,92.7327,0.000624389,-0.300165,0.936816,-0.501361,-3.02008,0.0397617,2.45538,0.391895,-0.0914001,2.3,-0.2,0,11703,48.079,28.853,13872.2
211645434,0.634766,2.223,92.7431,0.0522664,-0.407967,0.927016,-0.352157,-2.69018,-0.0268334,3.61822,0.974482,1.24994,2.3,-0.2,0,11703,48.079,28.853,13872.2
211745812,0.634766,2.223,92.747,0.0831015,-0.453844,0.919865,-0.182567,-2.27184,-0.0665839,4.31806,1.29259,1.40441,2.3,-0.2,0,11703,48.079,28.853,13872.2
211846227,0.634766,2.223,92.7594,0.0935412,-0.463717,0.91805,-0.00450891,-1.80596,-0.0689415,4.26846,1.39268,2.44431,2.3,-0.2,0,11703,48.079,28.853,13872.2
211946532,0.634766,2.223,92.7563,0.091946,-0.454226,0.919883,0.168398,-1.33259,-0.0741077,4.37234,1.4217,2.09381,2.3,-0.2,0,11703,48.079,28.853,13872.2
212046885,0.634766,2.223,92.7444,0.0832768,-0.442454,0.922301,0.324127,-0.879138,-0.0953889,4.01188,1.46094,2.25757,2.3,-0.2,0,11703,48.079,28.853,13872.2
212147244,0.634766,2.223,92.7543,0.067938,-0.434446,0.924727,0.482653,-0.421479,-0.0978335,4.00203,1.32003,2.31253,2.3,-0.2,0,11703,48.079,28.853,13872.2
212247616,0.634766,2.223,92.7415,0.0498116,-0.405675,0.929331,0.653918,0.00897348,-0.0974223,4.02185,1.16381,1.70929,-4.8,-1.9,0,11703,48.079,28.853,13872.2
212347996,0.634766,2.223,92.7119,0.0199782,-0.314856,0.93601,0.797296,0.393927,-0.101181,3.38535,1.06928,1.85271,-4.8,-1.9,0,11703,48.079,28.853,13872.2
212448407,0.634766,2.223,92.6948,-0.0356792,-0.043818,0.941359,0.915149,0.65957,-0.0224922,2.10933,0.562254,0.994846,-4.8,-1.9,0,11703,48.079,28.853,13872.2
212548784,0.634766,2.223,92.6844,-0.10325,0.255905,0.924805,0.85409,0.532036,-0.00628266,-1.99113,-0.343738,-0.0967416,-4.8,-1.9,0,11703,48.143,28.318,13633.1
212649152,0.634766,2.223,92.6484,-0.140896,0.393558,0.909395,0.685719,0.198792,-0.0620287,-3.67381,-0.606569,1.27773,-4.8,-1.9,0,11703,48.143,28.318,13633.1
212749543,0.634766,2.223,92.6277,-0.164262,0.471488,0.898029,0.468394,-0.265145,-0.0833386,-4.44132,-0.809581,2.59449,-4.8,-1.9,0,11703,48.143,28.318,13633.1
212849961,0.634766,2.223,92.6213,-0.168726,0.488979,0.895615,0.224556,-0.800776,-0.0863634,-4.9617,-0.896412,2.8761,-4.8,-1.9,0,11703,48.143,28.318,13633.1
212950402,0.634766,2.223,92.633,-0.165987,0.480382,0.896077,-0.0290369,-1.33541,-0.0660945,-4.7533,-0.82301,3.18204,-4.8,-1.9,0,11703,48.143,28.318,13633.1
213050771,0.634766,2.223,92.6516,-0.162229,0.464071,0.897939,-0.270397,-1.84607,-0.0607159,-4.73482,-0.823785,2.51142,-4.8,-1.9,0,11703,48.143,28.318,13633.1
213151142,0.634766,2.223,92.6873,-0.158002,0.443293,0.900795,-0.504876,-2.32752,-0.0585273,-4.47156,-0.764948,2.42833,-4.8,-1.9,0,11703,48.143,28.318,13633.1
213251547,0.634766,2.223,92.708,-0.164855,0.419321,0.903477,-0.724668,-2.7934,-0.0286552,-4.18705,-0.802557,2.14543,2.2,-0.1,0,11703,48.143,28.318,13633.1
213351932,0.634766,2.223,92.7363,-0.161144,0.358602,0.911347,-0.903835,-3.23611,-0.0313053,-3.83288,-0.937073,1.98502,2.2,-0.1,0,11703,48.143,28.318,13633.1
213452357,0.634766,2.223,92.7445,-0.0939919,0.0893263,0.933902,-1.04044,-3.60075,0.0244578,-2.75875,-0.815165,1.33675,2.2,-0.1,0,11703,48.143,28.318,13633.1
213552721,0.634766,2.223,92.7707,-0.00648704,-0.225801,0.93853,-1.03891,-3.60533,0.0627864,0.853206,0.143268,-0.315016,2.2,-0.1,0,11703,48.091,28.953,13923.8
213653036,0.634766,2.223,92.7761,0.044874,-0.39485,0.928584,-0.944753,-3.33814,-0.0201587,3.29315,0.864239,0.396974,2.2,-0.1,0,11703,48.091,28.953,13923.8
213753392,0.634766,2.223,92.7594,0.0747884,-0.472625,0.919997,-0.777739,-2.92685,-0.07618,4.26933,1.0578,2.0102,2.2,-0.1,0,11703,48.091,28.953,13923.8
213853874,0.634766,2.223,92.7758,0.0905395,-0.497278,0.916916,-0.586914,-2.41287,-0.0575833,4.77445,1.35234,2.66932,2.2,-0.1,0,11703,48.091,28.953,13923.8
213954260,0.634766,2.223,92.7879,0.0909781,-0.492437,0.917936,-0.410829,-1.8937,-0.063088,4.81631,1.40113,2.33579,2.2,-0.1,0,11703,48.091,28.953,13923.8
214054630,0.634766,2.223,92.7613,0.0843025,-0.482724,0.920625,-0.234801,-1.38573,-0.0824683,4.6714,1.36493,2.52885,2.2,-0.1,0,11703,48.091,28.953,13923.8
214155004,0.634766,2.223,92.7777,0.0677874,-0.474655,0.924367,-0.0478095,-0.871502,-0.0776768,4.69071,1.32094,2.29625,2.2,-0.1,0,11703,48.091,28.953,13923.8
214255449,0.634766,2.223,92.7999,0.0484556,-0.462016,0.928259,0.140829,-0.387334,-0.088282,4.44698,1.0978,2.06669,2.4,1.8,0,11703,48.091,28.953,13923.8
214355823,0.634766,2.223,92.7971,0.0412896,-0.428699,0.927714,0.330069,0.0711893,-0.0724302,4.24541,0.97317,1.92571,2.4,1.8,0,11703,48.091,28.953,13923.8
214456240,0.634766,2.223,92.7631,0.145678,-0.36861,0.900623,0.510571,0.497586,-0.0398555,3.75863,1.04474,2.101,2.4,1.8,0,11703,48.091,28.953,13923.8
214556590,0.634766,2.223,92.7413,0.241489,-0.306436,0.892276,0.526888,0.941026,-0.0383167,3.13459,2.25741,1.55439,2.4,1.8,0,11703,48.091,28.953,13923.8
214656955,0.634766,2.223,92.7359,0.271029,-0.241138,0.902615,0.435585,1.37283,-0.0663346,2.48392,2.97421,1.31407,2.4,1.8,0,11703,48.091,28.953,13923.8
214757320,0.634766,2.223,92.7106,0.25201,-0.188938,0.915369,0.291836,1.75291,-0.0639667,1.87902,3.05155,1.19997,2.4,1.8,0,11703,48.091,28.953,13923.8
214857674,0.634766,2.223,92.6704,0.203661,-0.148474,0.925961,0.143654,2.07085,-0.0518855,1.33957,2.6956,1.0445,2.4,1.8,0,11703,48.091,28.953,13923.8
214957993,0.634766,2.223,92.6433,0.14672,-0.120137,0.931974,0.0174974,2.30891,-0.0458356,0.958424,2.12103,0.748141,2.4,1.8,0,11703,48.091,28.953,13923.8
215058246,0.634766,2.223,92.6176,0.0994976,-0.101634,0.935043,-0.0701172,2.48571,-0.0342775,0.765004,1.5687,0.564125,2.4,1.8,0,11703,48.091,28.953,13923.8
215158499,0.634766,2.223,92.5934,0.067136,-0.0895368,0.935972,-0.134608,2.61126,-0.014076,0.510848,1.12939,0.407219,2.4,1.8,0,11703,48,29.307,14067.4
215258808,0.634766,2.223,92.573,0.0410664,-0.0827485,0.936449,-0.183769,2.7048,-0.00818225,0.421045,0.883553,0.268878,1.4,-2,0,11703,48,29.307,14067.4
215359097,0.634766,2.223,92.5361,0.00802098,-0.0740509,0.938914,-0.206277,2.77227,0.00694975,0.43267,0.541161,0.308722,1.4,-2,0,11703,48,29.307,14067.4
215459458,0.634766,2.223,92.5333,-0.167445,-0.0125699,0.941866,-0.20789,2.81382,0.0435881,0.234072,-0.0407914,0.300563,1.4,-2,0,11703,48,29.307,14067.4
215560809,0.634766,2.223,92.5128,-0.328782,0.0412646,0.930437,-0.0674723,2.65604,0.0486843,-0.415552,-2.14269,0.503081,1.4,-2,0,11703,48,29.307,14067.4
215665870,0.634766,2.223,92.4971,-0.425827,0.0682652,0.918635,0.202658,2.29506,0.0157964,-0.951603,-3.43854,1.5716,1.4,-2,0,11703,48,29.307,14067.4
215766244,0.634766,2.223,92.4938,-0.471682,0.0751659,0.912486,0.503111,1.9107,0.0275471,-1.09491,-4.17577,2.05861,1.4,-2,0,11703,48,29.307,14067.4
215866598,0.634766,2.223,92.4931,-0.477647,0.067092,0.912497,0.81622,1.49846,0.0523037,-1.13769,-4.12228,2.41588,1.4,-2,0,11703,48,29.307,14067.4
215966951,0.634766,2.223,92.5067,-0.441051,0.0460135,0.918379,1.11571,1.12257,0.0642214,-0.975227,-4.06076,1.86348,1.4,-2,0,11703,48,29.307,14067.4
216067287,0.634766,2.223,92.5021,-0.375704,0.0212695,0.926241,1.38233,0.809703,0.0788682,-0.650573,-3.44981,1.49166,1.4,-2,0,11703,48,29.307,14067.4
216167623,0.634766,2.223,92.5027,-0.311284,-0.00208441,0.933082,1.60551,0.574875,0.0918943,-0.298863,-2.76342,0.935528,1.4,-2,0,11698,47.949,29.83,14303.2
216268132,0.634766,2.223,92.5081,-0.248692,-0.0195306,0.936382,1.77497,0.405631,0.0812868,-0.105793,-2.11661,0.337866,-2.5,1.3,0,11698,47.949,29.83,14303.2
216368474,0.634766,2.223,92.5285,-0.18624,-0.0047004,0.937662,1.90849,0.279666,0.0882947,0.0972215,-1.44039,0.998717,-2.5,1.3,0,11698,47.949,29.83,14303.2
216468828,0.634766,2.223,92.5248,-0.00408312,0.155943,0.942105,1.96688,0.153174,0.135271,-0.698562,-0.703507,0.435965,-2.5,1.3,0,11698,47.949,29.83,14303.2
216569220,0.634766,2.223,92.5427,0.165172,0.269527,0.963235,1.69916,0.0131503,0.103143,-2.5885,1.71009,0.0596231,-2.5,1.3,0,11698,47.949,29.83,14303.2
216669560,0.634766,2.223,92.5407,0.261479,0.325154,0.979546,1.28135,-0.115106,0.0401265,-3.10699,2.62432,1.4124,-2.5,1.3,0,11698,47.949,29.83,14303.2
216769894,0.634766,2.223,92.5383,0.308661,0.344249,0.985531,0.762887,-0.233226,0.00917294,-3.5402,3.25428,1.93994,-2.5,1.3,0,11698,47.949,29.83,14303.2
216870139,0.634766,2.223,92.5506,0.318375,0.348259,0.984247,0.202102,-0.336872,-0.0391943,-3.46314,3.46387,2.37992,-2.5,1.3,0,11698,47.949,29.83,14303.2
216970493,0.634766,2.223,92.5539,0.306559,0.351382,0.980943,-0.368569,-0.43211,-0.0486121,-3.32045,3.34448,2.72851,-2.5,1.3,0,11698,47.949,29.83,14303.2
217070839,0.634766,2.223,92.5924,0.26544,0.335981,0.971522,-0.93951,-0.537369,-0.0401521,-3.42431,3.3301,2.44088,-2.5,1.3,0,11698,47.949,29.83,14303.2
217171187,0.634766,2.223,92.6248,0.203638,0.290651,0.95865,-1.43286,-0.646423,-0.0233226,-3.01998,2.67726,2.105,-2.5,1.3,0,11654,48.025,29.075,13963.3
217271559,0.634766,2.223,92.6184,0.136352,0.240869,0.948693,-1.8258,-0.732458,-0.0103344,-2.46234,2.09827,1.34355,4.4,0,0,11654,48.025,29.075,13963.3
217371868,0.634766,2.223,92.6242,0.071435,0.160611,0.941309,-2.12699,-0.819761,-0.00802706,-2.01324,1.40292,1.18811,4.4,0,0,11654,48.025,29.075,13963.3
217472205,0.634766,2.223,92.643,-0.00857753,-0.107036,0.940006,-2.31153,-0.860396,0.0426688,-0.704576,0.779416,0.124641,4.4,0,0,11654,48.025,29.075,13963.3
217574076,0.634766,2.223,92.6445,-0.0773834,-0.320371,0.95183,-2.22773,-0.685575,0.017236,2.44423,-0.136813,-0.157448,4.4,0,0,11654,48.025,29.075,13963.3
217674397,0.634766,2.223,92.6346,-0.113699,-0.423141,0.961976,-2.00364,-0.4069,-0.0381523,3.58757,-0.506849,1.36711,4.4,0,0,11654,48.025,29.075,13963.3
217774755,0.634766,2.223,92.6224,-0.131633,-0.465699,0.966859,-1.67991,-0.0547992,-0.0343655,4.3111,-0.72864,2.36138,4.4,0,0,11654,48.025,29.075,13963.3
217875169,0.634766,2.223,92.6296,-0.133636,-0.46982,0.967054,-1.32301,0.321451,-0.0210919,4.73798,-0.813031,1.97213,4.4,0,0,11654,48.025,29.075,13963.3
217975555,0.634766,2.223,92.6196,-0.130237,-0.458149,0.96467,-0.970551,0.692863,-0.0159754,4.36224,-0.667173,2.51886,4.4,0,0,11654,48.025,29.075,13963.3
218075855,0.634766,2.223,92.6111,-0.126331,-0.444832,0.963701,-0.617263,1.04704,-0.0111887,4.26467,-0.772897,2.32385,4.4,0,0,11654,48.025,29.075,13963.3
218176249,0.634766,2.223,92.5982,-0.12531,-0.4318,0.963157,-0.278045,1.38447,-0.00194667,4.04998,-0.747082,2.17333,4.4,0,0,11654,48.051,28.677,13779.6
218277943,0.634766,2.223,92.598,-0.128482,-0.417853,0.963467,0.0396175,1.71145,0.00190778,3.88156,-0.608462,1.83745,-3.9,1.3,0,11654,48.051,28.677,13779.6
218379273,0.634766,2.223,92.5649,-0.126816,-0.385676,0.963024,0.371941,2.02255,0.00944893,3.99145,-0.850632,1.55885,-3.9,1.3,0,11654,48.051,28.677,13779.6
218479673,0.634766,2.223,92.5347,-0.0762498,-0.147094,0.948334,0.681067,2.31196,0.0450994,3.30414,-0.621511,1.76778,-3.9,1.3,0,11654,48.051,28.677,13779.6
218580035,0.634766,2.223,92.5291,-0.0194591,0.178145,0.940511,0.717813,2.35432,0.123614,-0.131965,0.0370612,0.257453,-3.9,1.3,0,11654,48.051,28.677,13779.6
218680414,0.634766,2.223,92.5197,0.00906415,0.360812,0.942896,0.523767,2.15008,0.0610591,-3.17148,0.342625,0.224402,-3.9,1.3,0,11654,48.051,28.677,13779.6
218780783,0.634766,2.223,92.4927,0.0206621,0.453058,0.946811,0.226815,1.8426,0.00429789,-4.12921,0.601611,1.69664,-3.9,1.3,0,11654,48.051,28.677,13779.6
218881142,0.634766,2.223,92.4976,0.022333,0.487052,0.94743,-0.132717,1.44788,-0.0120991,-4.80267,0.594649,2.34012,-3.9,1.3,0,11654,48.051,28.677,13779.6
218981492,0.634766,2.223,92.5104,0.0224204,0.486839,0.946414,-0.511895,1.02591,-0.00170209,-4.899,0.527946,2.65696,-3.9,1.3,0,11654,48.051,28.677,13779.6
219081816,0.634766,2.223,92.5376,0.0235812,0.476035,0.945975,-0.887718,0.626391,-0.0100911,-4.82796,0.599318,2.31616,-3.9,1.3,0,11654,48.051,28.677,13779.6
219182131,0.634766,2.223,92.5542,0.0271836,0.463844,0.946008,-1.25994,0.229482,0.000579333,-4.65905,0.624974,2.30482,-3.9,1.3,0,11654,48.001,28.989,13915
219282525,0.634766,2.223,92.5697,0.0275776,0.445081,0.945692,-1.63325,-0.148984,0.015382,-4.31667,0.699882,2.42116,3.1,0.8,0,11654,48.001,28.989,13915
219383820,0.634766,2.223,92.575,0.0270058,0.409801,0.944168,-1.97467,-0.507014,0.0250707,-3.98611,0.546504,2.13809,3.1,0.8,0,11654,48.001,28.989,13915
219489414,0.634766,2.223,92.5782,0.00555316,0.150299,0.938696,-2.33555,-0.862134,0.0641971,-2.91306,0.517748,1.58866,3.1,0.8,0,11654,48.001,28.989,13915
219589779,0.634766,2.223,92.5905,-0.0248281,-0.184511,0.940729,-2.3918,-0.864273,0.09209,0.410744,0.345351,0.424574,3.1,0.8,0,11654,48.001,28.989,13915
219690160,0.634765,2.223,92.5924,-0.0450475,-0.368342,0.947314,-2.24872,-0.638295,0.0259252,3.21095,0.0186345,0.508818,3.1,0.8,0,11654,48.001,28.989,13915
219790527,0.634765,2.223,92.6204,-0.0601466,-0.467016,0.952782,-1.99536,-0.297009,-0.00049061,4.49713,-0.144072,1.43915,3.1,0.8,0,11654,48.001,28.989,13915
219890890,0.634765,2.223,92.6534,-0.0668978,-0.493045,0.954739,-1.69209,0.0990819,-0.013094,4.67118,-0.184587,2.35138,3.1,0.8,0,11654,48.001,28.989,13915
219991194,0.634765,2.223,92.692,-0.0709223,-0.489898,0.955594,-1.37362,0.503342,0.00113267,4.71329,-0.253818,2.42297,3.1,0.8,0,11654,48.001,28.989,13915
220091558,0.634765,2.223,92.7156,-0.0755491,-0.478689,0.956072,-1.06371,0.902154,0.0122032,4.73463,-0.213483,2.09049,3.1,0.8,0,11654,48.001,28.989,13915
220191918,0.634765,2.223,92.703,-0.0824878,-0.464197,0.957395,-0.759051,1.27276,9.28715e-05,4.3231,-0.339883,2.23586,3.1,0.8,0,11654,47.97,30.184,14479.3
220292358,0.634765,2.223,92.6942,-0.0904838,-0.443508,0.958976,-0.457512,1.64217,-0.0045504,4.29636,-0.340735,1.81596,-0.4,-3.5,0,11654,47.97,30.184,14479.3
220393846,0.634765,2.223,92.6627,-0.10511,-0.363496,0.956325,-0.156775,1.97967,-0.00765499,3.95905,-0.384815,1.7796,-0.4,-3.5,0,11654,47.97,30.184,14479.3
220494527,0.634765,2.223,92.6609,-0.217664,-0.117974,0.960211,0.117566,2.22474,0.0943822,2.85484,-0.851186,1.39517,-0.4,-3.5,0,11654,47.97,30.184,14479.3
220596496,0.634765,2.223,92.6292,-0.325871,0.0826856,0.930343,0.281305,2.13237,0.048246,-0.212268,-2.33411,-0.484381,-0.4,-3.5,0,11654,47.97,30.184,14479.3
220696858,0.634765,2.223,92.5786,-0.392139,0.180619,0.902091,0.422914,1.84488,-0.0432862,-1.6366,-2.87152,1.10531,-0.4,-3.5,0,11654,47.97,30.184,14479.3
220797177,0.634765,2.223,92.5416,-0.421657,0.220282,0.886885,0.589301,1.43134,-0.0479333,-2.18283,-3.32658,2.30539,-0.4,-3.5,0,11654,47.97,30.184,14479.3
220899062,0.634765,2.223,92.5481,-0.421805,0.218633,0.884511,0.753188,0.965135,-0.0374218,-2.40822,-3.42744,2.53778,-0.4,-3.5,0,11654,47.97,30.184,14479.3
221005361,0.634765,2.223,92.5203,-0.419474,0.203002,0.888117,0.920112,0.516124,-0.0192748,-2.31265,-3.46738,2.29072,-0.4,-3.5,0,11654,47.97,30.184,14479.3
221107261,0.634765,2.223,92.5168,-0.41359,0.188438,0.892357,1.1412,-0.0102906,0.00340405,-2.07157,-3.48107,2.20704,-0.4,-3.5,0,11654,47.97,30.184,14479.3
221207622,0.634765,2.223,92.5412,-0.404915,0.170242,0.899298,1.3268,-0.419479,0.0126693,-1.84662,-3.45827,1.72426,-0.4,-3.5,0,11654,47.962,30.569,14661.5
221309454,0.634765,2.223,92.5667,-0.401078,0.149679,0.905865,1.50402,-0.795892,0.0369457,-1.61866,-3.23585,1.63136,1.1,-1.3,0,11654,47.962,30.569,14661.5
221409760,0.634766,2.223,92.5885,-0.354775,0.111339,0.917181,1.68028,-1.14804,0.033496,-1.40541,-3.12945,1.49051,1.1,-1.3,0,11654,47.962,30.569,14661.5
221510079,0.634766,2.223,92.6219,-0.133769,-0.0454969,0.934286,1.83289,-1.40922,0.113793,-0.594508,-2.18234,0.921009,1.1,-1.3,0,11654,47.962,30.569,14661.5
221610455,0.634766,2.223,92.66,0.0543819,-0.174641,0.929105,1.85697,-1.31695,0.144142,1.39717,0.652193,-0.513261,1.1,-1.3,0,11654,47.962,30.569,14661.5
221710822,0.634766,2.223,92.6749,0.122353,-0.218401,0.924822,1.82429,-1.086,0.046724,2.14646,1.70462,-0.327115,1.1,-1.3,0,11654,47.962,30.569,14661.5
221811145,0.634766,2.223,92.7007,0.131751,-0.218987,0.924497,1.77542,-0.806674,0.0221143,2.23093,1.98296,0.458528,1.1,-1.3,0,11654,47.962,30.569,14661.5
221911540,0.634766,2.223,92.74,0.106653,-0.19151,0.930189,1.72475,-0.547947,-0.00256518,2.12947,1.81418,-0.280338,1.1,-1.3,0,11654,47.962,30.569,14661.5
222011884,0.634766,2.223,92.7738,0.075948,-0.156332,0.935364,1.67374,-0.335974,-0.0253265,1.66052,1.54469,0.209149,1.1,-1.3,0,11654,47.962,30.569,14661.5
222112263,0.634766,2.223,92.8081,0.046006,-0.128255,0.938168,1.61713,-0.162508,-0.0352031,1.35504,1.30456,-0.209527,1.1,-1.3,0,11654,47.962,30.569,14661.5
222212616,0.634766,2.223,92.8159,0.0150091,-0.106406,0.938771,1.57244,-0.0238841,-0.056587,1.08882,0.913332,-0.196889,1.1,-1.3,0,11654,47.962,30.569,14661.5
222313001,0.634766,2.223,92.7988,-0.015815,-0.0881991,0.939834,1.54021,0.0901453,-0.0745645,0.949897,0.597615,-0.251088,-3.8,2.3,0,11654,47.914,30.976,14841.8
222413350,0.634766,2.223,92.7884,-0.0180119,-0.0431472,0.939767,1.52451,0.173878,-0.0680354,0.744783,0.300198,0.475101,-3.8,2.3,0,11654,47.914,30.976,14841.8
222514515,0.634766,2.223,92.7802,0.0950673,0.136476,0.944805,1.46226,0.209231,-0.0352121,-0.341965,0.620446,0.255108,-3.8,2.3,0,11654,47.914,30.976,14841.8
222614940,0.634766,2.223,92.756,0.194666,0.269527,0.964935,1.15012,0.165656,-0.0803046,-2.18872,2.06147,0.146505,-3.8,2.3,0,11654,47.914,30.976,14841.8
222716699,0.634766,2.223,92.7102,0.251928,0.338535,0.980074,0.709048,0.0823179,-0.124498,-3.05978,2.64067,1.3991,-3.8,2.3,0,11654,47.914,30.976,14841.8
222817054,0.634766,2.223,92.6656,0.274783,0.362674,0.985141,0.183258,-0.034283,-0.140806,-3.46928,2.92856,2.27178,-3.8,2.3,0,11654,47.914,30.976,14841.8
222917416,0.634766,2.223,92.6461,0.27579,0.3642,0.983758,-0.384857,-0.138558,-0.1215,-3.36725,3.14043,2.80866,-3.8,2.3,0,11654,47.914,30.976,14841.8
223017823,0.634766,2.223,92.6173,0.261577,0.362476,0.980262,-0.92381,-0.245029,-0.115069,-3.38476,2.99673,2.36077,-3.8,2.3,0,11654,47.914,30.976,14841.8
223118170,0.634766,2.223,92.5968,0.241328,0.364493,0.978459,-1.45384,-0.352207,-0.108648,-3.23538,2.96398,2.45486,-3.8,2.3,0,11654,47.914,30.976,14841.8
223218543,0.634766,2.223,92.58,0.214576,0.368215,0.977099,-1.95276,-0.487613,-0.0671582,-3.17458,2.439,2.59512,-3.8,2.3,0,11654,47.914,30.976,14841.8
223318934,0.634766,2.223,92.5523,0.18847,0.365507,0.974398,-2.42707,-0.643328,-0.0429313,-3.32772,2.27153,2.19281,-3.2,-3.5,0,11654,47.898,31.163,14926.5
223420591,0.634766,2.223,92.5607,0.133891,0.325066,0.96306,-2.86184,-0.815439,-0.0261024,-3.212,1.90831,1.88113,-3.2,-3.5,0,11654,47.898,31.163,14926.5
223525279,0.634765,2.223,92.5519,-0.0728758,0.193498,0.924881,-3.22179,-0.976266,0.0910149,-2.69664,1.35573,1.35121,-3.2,-3.5,0,11654,47.898,31.163,14926.5
223625603,0.634765,2.223,92.5583,-0.303123,0.0789342,0.923001,-3.24452,-1.13842,0.11695,-1.04491,-1.4157,0.369322,-3.2,-3.5,0,11654,47.898,31.163,14926.5
223725971,0.634765,2.223,92.5615,-0.426201,0.0259619,0.936761,-2.96524,-1.38363,0.0319012,-0.000672828,-3.57174,0.88958,-3.2,-3.5,0,11654,47.898,31.163,14926.5
223826318,0.634765,2.223,92.5647,-0.482919,0.00640277,0.946063,-2.61221,-1.62943,0.00141865,0.248404,-3.97919,2.36559,-3.2,-3.5,0,11654,47.898,31.163,14926.5
223926676,0.634765,2.223,92.582,-0.492769,0.00722114,0.949615,-2.22049,-1.87845,0.00546801,0.345556,-4.24184,2.38426,-3.2,-3.5,0,11654,47.898,31.163,14926.5
224027027,0.634765,2.223,92.6399,-0.486503,0.0129307,0.949321,-1.83405,-2.12953,0.0104099,0.308721,-4.32984,1.86494,-3.2,-3.5,0,11654,47.898,31.163,14926.5
224127370,0.634765,2.223,92.6854,-0.471212,0.0229671,0.945854,-1.44958,-2.36053,0.00968961,0.376825,-4.26486,1.69487,-3.2,-3.5,0,11654,47.898,31.163,14926.5
224227706,0.634765,2.223,92.7062,-0.454247,0.0376685,0.942436,-1.09802,-2.58921,-0.00830996,0.206962,-3.97229,1.47322,-3.2,-3.5,0,11654,47.898,31.163,14926.5
224328122,0.634765,2.223,92.7076,-0.436769,0.0562715,0.936741,-0.773795,-2.82228,-0.0175613,0.0214379,-3.58563,1.78322,3.5,4.5,0,11615,48.214,25.071,12087.7
224429203,0.634765,2.223,92.7028,-0.40224,0.0613092,0.934417,-0.476077,-3.06159,-0.0398508,-0.186084,-3.48962,1.49814,3.5,4.5,0,11615,48.214,25.071,12087.7
224530516,0.634765,2.223,92.7149,-0.200165,-0.0586311,0.938455,-0.195053,-3.27855,0.0427988,-0.0166204,-2.77037,2.15386,3.5,4.5,0,11615,48.214,25.071,12087.7
224630959,0.634765,2.223,92.7578,0.0893075,-0.209294,0.922508,-0.0494419,-3.17876,0.11141,1.78645,-0.0535212,0.556146,3.5,4.5,0,11615,48.214,25.071,12087.7
224731359,0.634765,2.223,92.7268,0.272211,-0.288746,0.895819,-0.0755739,-2.796,0.0707175,3.03589,2.81551,0.0652097,3.5,4.5,0,11615,48.214,25.071,12087.7
224831761,0.634765,2.223,92.7109,0.352105,-0.324429,0.878478,-0.175389,-2.32926,-0.0859712,3.06833,3.48274,1.55899,3.5,4.5,0,11615,48.214,25.071,12087.7
224932165,0.634765,2.223,92.6845,0.386642,-0.353033,0.865481,-0.300608,-1.74157,-0.113181,3.47888,3.89313,3.04091,3.5,4.5,0,11615,48.214,25.071,12087.7
225032432,0.634765,2.223,92.6672,0.40031,-0.357498,0.863777,-0.418574,-1.11387,-0.123476,3.8677,4.18903,2.56395,3.5,4.5,0,11615,48.214,25.071,12087.7
225132678,0.634765,2.223,92.609,0.399928,-0.355457,0.865525,-0.55171,-0.49755,-0.173647,3.61293,4.03248,3.14263,3.5,4.5,0,11615,48.214,25.071,12087.7
