timestamp,lat,log,alt,roll,pitch,yaw,vel_x,vel_y,vel_z,acc_x,acc_y,acc_z,act_vx,act_vy,act_yr,capacity,vol,cur,power
5259294287,0.63477,2.223,105.693,-0.0676495,0.0251141,0.866238,0.0935107,0.131099,-0.0107412,-0.0137159,0.0448495,0.0798417,-3.2,4,0,12115,49.904,23.097,11526.3
5259394895,0.63477,2.223,105.68,-0.0729595,0.0284772,0.865277,0.0883129,0.120015,-0.0156853,-0.0980505,-0.102903,-0.0528457,-3.2,4,0,12115,49.904,23.097,11526.3
5259495286,0.63477,2.223,105.672,-0.0637945,0.0399129,0.864806,0.0757935,0.102028,-0.0164071,-0.175139,0.00711528,0.234475,-3.2,4,0,12115,49.904,23.097,11526.3
5259595649,0.63477,2.223,105.665,0.0539308,0.132498,0.872358,0.0531433,0.0768944,0.0429772,-0.431356,0.203766,0.358655,-3.2,4,0,12115,49.904,23.097,11526.3
5259696040,0.63477,2.223,105.683,0.21423,0.23267,0.893905,-0.208824,0.0596871,0.0323112,-1.79034,1.99239,0.545269,-3.2,4,0,12115,49.904,23.097,11526.3
5259796374,0.63477,2.223,105.692,0.301018,0.283239,0.910206,-0.626976,0.0625081,-0.00818232,-2.55146,3.03412,1.35346,-3.2,4,0,12115,49.904,23.097,11526.3
5259896767,0.63477,2.223,105.685,0.353885,0.309385,0.921222,-1.13365,0.0780107,-0.0380766,-2.75092,3.54756,2.20068,-3.2,4,0,12115,49.904,23.097,11526.3
5259997118,0.63477,2.223,105.675,0.376578,0.322573,0.926179,-1.69689,0.0979706,-0.0617158,-3.0037,3.8264,2.45167,-3.2,4,0,12115,49.904,23.097,11526.3
5260097488,0.63477,2.223,105.661,0.375418,0.321774,0.923336,-2.28195,0.115397,-0.0809973,-3.04908,3.8548,2.93277,-3.2,4,0,12115,49.904,23.097,11526.3
5260197813,0.63477,2.223,105.626,0.35358,0.317234,0.919051,-2.86932,0.144937,-0.0623831,-2.96945,3.95438,2.80814,-3.2,4,0,12115,49.904,23.097,11526.3
5260298230,0.63477,2.223,105.609,0.313375,0.296886,0.909528,-3.42706,0.156482,-0.0397722,-2.95282,3.70475,2.54673,-4.1,-2.3,0,12115,49.904,23.097,11526.3
5260398592,0.63477,2.223,105.612,0.219694,0.251863,0.890165,-3.92248,0.176121,0.00665486,-2.42782,3.30651,2.18175,-4.1,-2.3,0,12115,49.883,22.912,11429.2
5260498953,0.63477,2.223,105.629,-0.0423272,0.187417,0.846659,-4.28816,0.163669,0.128596,-2.13826,2.08519,0.339176,-4.1,-2.3,0,12115,49.883,22.912,11429.2
5260599292,0.634769,2.223,105.648,-0.283853,0.131507,0.840064,-4.34075,0.0194034,0.0730968,-1.27996,-1.32421,-0.802069,-4.1,-2.3,0,12115,49.883,22.912,11429.2
5260699594,0.634769,2.223,105.653,-0.413221,0.108283,0.844638,-4.19332,-0.230125,-0.0153333,-0.686582,-2.92056,1.1471,-4.1,-2.3,0,12115,49.883,22.912,11429.2
5260799945,0.634769,2.223,105.651,-0.469956,0.102527,0.84817,-3.93473,-0.57333,-0.0336828,-0.65439,-3.87136,2.08448,-4.1,-2.3,0,12115,49.883,22.912,11429.2
5260900341,0.634769,2.223,105.637,-0.481939,0.105287,0.849387,-3.62939,-0.949818,-0.0371027,-0.604726,-4.10407,2.63712,-4.1,-2.3,0,12115,49.883,22.912,11429.2
5261000640,0.634769,2.223,105.618,-0.475983,0.110248,0.849322,-3.32347,-1.32864,-0.023016,-0.610473,-4.16496,2.45149,-4.1,-2.3,0,12115,49.883,22.912,11429.2
5261100956,0.634769,2.223,105.61,-0.467698,0.11305,0.848614,-3.02268,-1.68758,-0.0128807,-0.541634,-3.95384,2.32537,-4.1,-2.3,0,12115,49.883,22.912,11429.2
5261201270,0.634769,2.223,105.607,-0.455855,0.116059,0.847989,-2.73471,-2.06475,0.00344045,-0.795612,-4.03008,2.07103,-4.1,-2.3,0,12115,49.883,22.912,11429.2
5261301656,0.634769,2.223,105.606,-0.441535,0.120346,0.847495,-2.45442,-2.41727,0.00789321,-0.70838,-3.76174,1.84053,0.5,0.2,0,12115,49.883,22.912,11429.2
5261401998,0.634769,2.223,105.62,-0.41726,0.108365,0.853654,-2.17951,-2.75599,0.0239258,-0.702211,-3.55375,1.74899,0.5,0.2,0,12115,49.875,23.259,11600.4
5261502351,0.634769,2.223,105.637,-0.283467,-0.0572436,0.872138,-1.89861,-3.09338,0.12885,-0.571701,-3.20053,2.58501,0.5,0.2,0,12115,49.875,23.259,11600.4
5261602707,0.634769,2.223,105.671,-0.086201,-0.290107,0.869471,-1.63762,-3.09842,0.198742,1.81198,-1.27953,1.1889,0.5,0.2,0,12115,49.875,23.259,11600.4
5261703078,0.634769,2.223,105.705,0.0436071,-0.419293,0.852886,-1.37449,-2.76346,0.218583,4.15993,0.601195,1.11651,0.5,0.2,0,12115,49.875,23.259,11600.4
5261803427,0.634769,2.223,105.736,0.0881783,-0.466028,0.845009,-1.16909,-2.35683,0.0477765,4.77022,1.34966,0.221603,0.5,0.2,0,12115,49.875,23.259,11600.4
5261903829,0.634769,2.223,105.751,0.0995483,-0.477025,0.842889,-0.932875,-1.87591,-0.0416973,4.67674,1.42516,2.37146,0.5,0.2,0,12115,49.875,23.259,11600.4
5262004298,0.634769,2.223,105.751,0.0944095,-0.437116,0.849601,-0.68993,-1.3557,-0.0702398,4.90714,1.57758,2.1671,0.5,0.2,0,12115,49.875,23.259,11600.4
5262104615,0.634769,2.223,105.748,0.0763765,-0.360293,0.858355,-0.488256,-0.885133,-0.0774912,4.22653,1.52121,1.79619,0.5,0.2,0,12115,49.875,23.259,11600.4
5262204870,0.634769,2.223,105.738,0.052031,-0.279553,0.864179,-0.350174,-0.5087,-0.0826405,3.28251,1.35669,1.03095,0.5,0.2,0,12115,49.875,23.259,11600.4
5262305525,0.634769,2.223,105.727,0.0215595,-0.206472,0.867853,-0.248938,-0.206911,-0.0595843,2.48277,1.07143,0.98609,-4.8,1.4,0,12115,49.875,23.259,11600.4
5262406686,0.634769,2.223,105.731,0.000775037,-0.129553,0.869955,-0.178715,0.0162127,-0.0334735,1.83453,0.762524,0.574644,-4.8,1.4,0,12071,49.661,26.497,13158.7
5262506964,0.634769,2.223,105.728,0.0252565,0.125986,0.86952,-0.129306,0.175645,0.0337381,0.946069,0.585396,0.793086,-4.8,1.4,0,12071,49.661,26.497,13158.7
5262607214,0.634769,2.223,105.733,0.0544832,0.323999,0.875336,-0.332521,0.0976781,0.00510281,-2.36711,0.947727,-0.219379,-4.8,1.4,0,12071,49.661,26.497,13158.7
5262707498,0.634769,2.223,105.736,0.0717793,0.432393,0.882264,-0.662639,-0.0870431,-0.0763685,-3.63184,1.14578,1.22222,-4.8,1.4,0,12071,49.661,26.497,13158.7
5262807845,0.634769,2.223,105.74,0.0739335,0.481779,0.885784,-1.08864,-0.359272,-0.0793897,-4.38417,1.12036,2.42952,-4.8,1.4,0,12071,49.661,26.497,13158.7
5262908246,0.634769,2.223,105.747,0.0682777,0.493055,0.884693,-1.5415,-0.659781,-0.0729972,-4.52224,1.17724,2.72247,-4.8,1.4,0,12071,49.661,26.497,13158.7
5263008601,0.634769,2.223,105.758,0.0600872,0.488394,0.882411,-1.98293,-0.966708,-0.0506593,-4.52842,1.1672,2.46333,-4.8,1.4,0,12071,49.661,26.497,13158.7
5263108907,0.634769,2.223,105.78,0.0501182,0.478272,0.878978,-2.40972,-1.27794,-0.0316272,-4.4454,0.935577,2.29308,-4.8,1.4,0,12071,49.661,26.497,13158.7
5263209272,0.634769,2.223,105.785,0.0354125,0.448356,0.873883,-2.81672,-1.58541,-0.0199721,-4.3961,0.884082,1.92469,-4.8,1.4,0,12071,49.661,26.497,13158.7
5263309664,0.634769,2.223,105.791,0.01333,0.376137,0.868695,-3.17204,-1.87388,-0.0100848,-3.65719,0.636963,1.89523,1.4,0.4,0,12071,49.661,26.497,13158.7
5263410013,0.634769,2.223,105.786,-0.0116425,0.279242,0.863007,-3.45266,-2.10892,-0.0046278,-3.01299,0.468235,1.00039,1.4,0.4,0,12071,49.408,32.035,15827.9
5263510435,0.634769,2.223,105.781,-0.0607665,-0.0196165,0.862428,-3.65837,-2.29639,0.0326106,-1.96223,0.153954,0.66472,1.4,0.4,0,12071,49.408,32.035,15827.9
5263610758,0.634768,2.223,105.781,-0.088462,-0.298651,0.876587,-3.55731,-2.21031,0.0707353,2.08039,-0.348195,0.207215,1.4,0.4,0,12071,49.408,32.035,15827.9
5263711111,0.634768,2.223,105.779,-0.0973803,-0.424864,0.886361,-3.28976,-1.96096,-0.0473791,4.12873,-0.490951,0.483966,1.4,0.4,0,12071,49.408,32.035,15827.9
5263811453,0.634768,2.223,105.768,-0.0901387,-0.470989,0.888705,-2.86132,-1.54326,-0.0974689,4.74444,-0.318151,2.60003,1.4,0.4,0,12071,49.408,32.035,15827.9
5263911824,0.634768,2.223,105.749,-0.0878827,-0.476351,0.888443,-2.48114,-1.15546,-0.0932482,4.96209,-0.226724,2.63312,1.4,0.4,0,12071,49.408,32.035,15827.9
5264012205,0.634768,2.223,105.724,-0.0915195,-0.468229,0.889097,-2.1011,-0.779056,-0.074484,4.75781,-0.272904,2.76844,1.4,0.4,0,12071,49.408,32.035,15827.9
5264114090,0.634768,2.223,105.708,-0.0970745,-0.458881,0.8911,-1.72397,-0.411352,-0.0643434,4.70065,-0.332261,2.49168,1.4,0.4,0,12071,49.408,32.035,15827.9
5264216474,0.634768,2.223,105.702,-0.106742,-0.437959,0.892257,-1.3479,-0.054255,-0.0482584,4.46958,-0.394728,2.41554,1.4,0.4,0,12071,49.408,32.035,15827.9
5264317027,0.634768,2.223,105.706,-0.113378,-0.39269,0.889725,-0.982608,0.274626,-0.0301131,4.24898,-0.453445,1.93039,0.3,2.5,0,12071,49.408,32.035,15827.9
5264419934,0.634768,2.223,105.715,-0.0724622,-0.310222,0.874305,-0.649771,0.548508,-0.00721319,3.46016,-0.631942,2.18772,0.3,2.5,0,12071,49.515,28.859,14289.5
5264520421,0.634768,2.223,105.721,0.112506,-0.154154,0.848144,-0.412989,0.809875,0.0975294,2.81748,0.288997,1.0221,0.3,2.5,0,12071,49.515,28.859,14289.5
5264620814,0.634768,2.223,105.732,0.225576,-0.0285363,0.859191,-0.498293,1.03093,0.0610457,0.784832,2.38059,-0.516641,0.3,2.5,0,12071,49.515,28.859,14289.5
5264721181,0.634768,2.223,105.733,0.253931,0.0352943,0.87269,-0.701117,1.21427,-0.043599,-0.164896,2.77393,0.149134,0.3,2.5,0,12071,49.515,28.859,14289.5
5264821528,0.634768,2.223,105.732,0.234295,0.0592289,0.878366,-0.959978,1.38351,-0.0641871,-0.578066,3.00544,0.635777,0.3,2.5,0,12071,49.515,28.859,14289.5
5264921887,0.634768,2.223,105.725,0.186375,0.0584236,0.878466,-1.20335,1.51748,-0.071541,-0.643076,2.59057,0.427179,0.3,2.5,0,12071,49.515,28.859,14289.5
5265022283,0.634768,2.223,105.73,0.13826,0.0457711,0.876095,-1.39814,1.62102,-0.0532763,-0.515577,2.01842,0.538253,0.3,2.5,0,12071,49.515,28.859,14289.5
5265122651,0.634768,2.223,105.734,0.0975377,0.032315,0.873725,-1.54904,1.70164,-0.0380679,-0.374664,1.52966,0.180297,0.3,2.5,0,12071,49.515,28.859,14289.5
5265223028,0.634768,2.223,105.727,0.0662334,0.0186887,0.871731,-1.66434,1.75286,-0.0317905,-0.333412,1.10002,0.335091,0.3,2.5,0,12071,49.515,28.859,14289.5
5265323454,0.634768,2.223,105.71,0.0424388,0.00552558,0.870087,-1.7552,1.80552,-0.0269916,-0.11813,0.875917,0.0175899,-2.2,-2.2,0,12071,49.515,28.859,14289.5
5265423825,0.634768,2.223,105.709,0.0100214,0.0061496,0.86933,-1.82593,1.84746,-0.0225864,0.0253689,0.676411,0.207031,-2.2,-2.2,0,12071,49.515,28.859,14289.5
5265524222,0.634768,2.223,105.698,-0.144565,0.0838197,0.862957,-1.87262,1.86835,0.0261722,-0.181764,0.139482,0.461395,-2.2,-2.2,0,12071,49.483,29.013,14356.5
5265624543,0.634768,2.223,105.689,-0.287806,0.145798,0.846794,-1.84409,1.6828,-0.0184872,-1.14271,-1.74313,-0.0180099,-2.2,-2.2,0,12071,49.483,29.013,14356.5
5265724916,0.634768,2.223,105.671,-0.375164,0.183143,0.832635,-1.73983,1.36304,-0.0487914,-1.5066,-2.74478,1.42275,-2.2,-2.2,0,12071,49.483,29.013,14356.5
5265825264,0.634768,2.223,105.661,-0.415825,0.197999,0.825125,-1.6006,0.944754,-0.0343758,-1.88453,-3.44623,1.88797,-2.2,-2.2,0,12071,49.483,29.013,14356.5
5265925612,0.634768,2.223,105.658,-0.428046,0.199615,0.823389,-1.45051,0.504807,-0.0170589,-1.99359,-3.53262,2.09129,-2.2,-2.2,0,12071,49.483,29.013,14356.5
5266025991,0.634768,2.223,105.663,-0.425088,0.194059,0.824262,-1.29528,0.0633489,0.00715484,-1.87389,-3.38156,2.31523,-2.2,-2.2,0,12071,49.483,29.013,14356.5
5266126347,0.634768,2.223,105.677,-0.420119,0.185322,0.826265,-1.14094,-0.355815,0.0205792,-1.77742,-3.3966,1.75999,-2.2,-2.2,0,12071,49.483,29.013,14356.5
5266226640,0.634768,2.223,105.692,-0.414914,0.177268,0.82767,-0.992081,-0.765636,0.0285916,-1.75507,-3.37925,1.59429,-2.2,-2.2,0,12071,49.483,29.013,14356.5
5266327037,0.634768,2.223,105.702,-0.40973,0.173798,0.828369,-0.830335,-1.15138,-0.000812925,-1.55304,-3.32909,1.41953,1.7,1.8,0,12071,49.483,29.013,14356.5
5266427402,0.634768,2.223,105.713,-0.377715,0.151758,0.83508,-0.67342,-1.53826,-0.00664801,-1.5811,-3.21465,1.50514,1.7,1.8,0,12071,49.483,29.013,14356.5
5266527677,0.634768,2.223,105.729,-0.179558,0.00167271,0.854578,-0.52164,-1.89396,0.0569384,-1.20662,-2.72411,1.25786,1.7,1.8,0,12071,49.469,28.833,14263.4
5266628065,0.634768,2.223,105.742,0.0791791,-0.200631,0.850589,-0.441619,-1.89907,0.112078,0.983792,-0.0629307,0.347629,1.7,1.8,0,12071,49.469,28.833,14263.4
5266728415,0.634768,2.223,105.755,0.228259,-0.311321,0.82845,-0.424476,-1.57049,0.0685019,3.0143,2.43104,0.0195088,1.7,1.8,0,12071,49.469,28.833,14263.4
5266828750,0.634768,2.223,105.763,0.296722,-0.3577,0.813296,-0.419028,-1.12128,-0.0121225,3.4268,2.88788,1.72274,1.7,1.8,0,12071,49.469,28.833,14263.4
5266929113,0.634768,2.223,105.749,0.330031,-0.363781,0.811093,-0.428744,-0.572378,-0.0361563,3.68803,3.3921,2.53878,1.7,1.8,0,12071,49.469,28.833,14263.4
5267029456,0.634768,2.223,105.732,0.341292,-0.349016,0.818134,-0.465398,-0.00599551,-0.0623683,3.65174,3.58118,2.60786,1.7,1.8,0,12071,49.469,28.833,14263.4
5267129819,0.634768,2.223,105.704,0.324646,-0.32289,0.830204,-0.5355,0.557821,-0.0656265,3.34648,3.61574,2.8258,1.7,1.8,0,12071,49.469,28.833,14263.4
5267230213,0.634768,2.223,105.655,0.269039,-0.273913,0.848844,-0.617934,1.08466,-0.0359019,2.91879,3.45451,2.30985,1.7,1.8,0,12071,49.469,28.833,14263.4
5267330628,0.634768,2.223,105.653,0.194856,-0.225957,0.861232,-0.689583,1.51757,-0.013526,2.48443,2.87036,1.60545,-2.6,-4.1,0,12071,49.469,28.833,14263.4
5267430967,0.634768,2.223,105.659,0.115687,-0.179033,0.867507,-0.732224,1.8571,-0.00189799,2.0427,2.12632,0.619081,-2.6,-4.1,0,12071,49.469,28.833,14263.4
5267531332,0.634768,2.223,105.67,-0.0643284,-0.00720666,0.878559,-0.743896,2.11209,0.0509793,1.40908,1.30121,0.625406,-2.6,-4.1,0,12071,49.543,27.015,13384
5267631702,0.634768,2.223,105.676,-0.23711,0.136316,0.856599,-0.739922,2.04695,0.0269484,-0.95442,-1.14624,-1.02527,-2.6,-4.1,0,12071,49.543,27.015,13384
5267732081,0.634768,2.223,105.686,-0.33361,0.2021,0.833864,-0.70357,1.80762,-0.0457403,-1.68421,-2.07548,0.94467,-2.6,-4.1,0,12071,49.543,27.015,13384
5267832438,0.634768,2.223,105.702,-0.378635,0.225952,0.821843,-0.63379,1.4643,-0.0310977,-2.16307,-2.72478,1.50289,-2.6,-4.1,0,12071,49.543,27.015,13384
5267932765,0.634768,2.223,105.727,-0.393361,0.2274,0.819193,-0.531376,1.00665,-0.0136817,-2.23506,-2.84926,1.94857,-2.6,-4.1,0,12071,49.543,27.015,13384
5268033059,0.634768,2.223,105.749,-0.395642,0.221275,0.82135,-0.433205,0.61194,0.00114173,-2.19104,-3.03921,1.6793,-2.6,-4.1,0,12071,49.543,27.015,13384
5268133411,0.634768,2.223,105.755,-0.394405,0.213256,0.824387,-0.332771,0.227656,0.00551018,-2.04524,-2.92901,1.62008,-2.6,-4.1,0,12071,49.543,27.015,13384
5268233747,0.634768,2.223,105.759,-0.391801,0.205076,0.827445,-0.232708,-0.134712,-0.00814962,-1.87937,-2.8839,1.39815,-2.6,-4.1,0,12071,49.543,27.015,13384
5268334143,0.634768,2.223,105.766,-0.386177,0.195753,0.829787,-0.12881,-0.495696,-0.0143128,-1.81219,-2.81637,1.41195,0.3,-1.8,0,12071,49.543,27.015,13384
5268434447,0.634768,2.223,105.77,-0.379784,0.177402,0.836286,-0.0274923,-0.853475,-0.0192352,-1.8504,-2.74844,1.15031,0.3,-1.8,0,12071,49.543,27.015,13384
5268535882,0.634768,2.223,105.772,-0.307482,0.0147468,0.857137,0.10871,-1.19252,0.0494186,-1.06908,-2.55139,1.64948,0.3,-1.8,0,12071,49.518,28.536,14130.5
5268639662,0.634768,2.223,105.778,-0.228223,-0.136846,0.873605,0.303747,-1.27218,0.0488444,0.99146,-1.78614,0.0322601,0.3,-1.8,0,12071,49.518,28.536,14130.5
5268740071,0.634768,2.223,105.762,-0.193,-0.199036,0.88297,0.489855,-1.22834,-0.0133544,1.80103,-0.955681,0.256666,0.3,-1.8,0,12071,49.518,28.536,14130.5
5268840426,0.634768,2.223,105.741,-0.1689,-0.206481,0.8851,0.67447,-1.1576,-0.0598965,1.84287,-0.706594,0.120315,0.3,-1.8,0,12071,49.518,28.536,14130.5
5268940775,0.634768,2.223,105.726,-0.151337,-0.187665,0.883924,0.863151,-1.06238,-0.0575728,1.95287,-0.622063,0.948866,0.3,-1.8,0,12071,49.518,28.536,14130.5
5269041104,0.634768,2.223,105.712,-0.134262,-0.156455,0.881097,1.03115,-0.970801,-0.025856,1.76715,-0.496174,0.844322,0.3,-1.8,0,12071,49.518,28.536,14130.5
5269141385,0.634768,2.223,105.694,-0.124537,-0.123521,0.877836,1.15812,-0.898453,-0.00191658,1.41503,-0.456766,-0.0365478,0.3,-1.8,0,12071,49.518,28.536,14130.5
5269241769,0.634768,2.223,105.669,-0.122991,-0.0979045,0.874638,1.25673,-0.844122,-0.0185393,1.09091,-0.331947,0.437114,0.3,-1.8,0,12071,49.518,28.536,14130.5
5269342225,0.634768,2.223,105.655,-0.122214,-0.0771898,0.872111,1.35297,-0.808077,-0.0161348,0.881398,-0.478451,0.334736,-3.9,4.8,0,12071,49.518,28.536,14130.5
5269442607,0.634768,2.223,105.647,-0.108645,-0.0520436,0.869192,1.42378,-0.778287,-0.0340305,0.633171,-0.331852,0.120463,-3.9,4.8,0,12071,49.518,28.536,14130.5
5269543002,0.634768,2.223,105.646,0.068654,0.0633562,0.870628,1.47861,-0.752408,0.034461,0.379798,-0.0423888,0.830053,-3.9,4.8,0,12071,49.56,27.516,13636.9
5269643381,0.634768,2.223,105.666,0.248595,0.159576,0.88822,1.2318,-0.69174,0.081146,-1.22786,2.37649,0.475431,-3.9,4.8,0,12071,49.56,27.516,13636.9
5269743704,0.634768,2.223,105.662,0.341302,0.215088,0.903919,0.82306,-0.596598,0.0260623,-1.92334,3.50832,1.37524,-3.9,4.8,0,12071,49.56,27.516,13636.9
5269844095,0.634768,2.223,105.654,0.384184,0.244662,0.914087,0.31377,-0.482507,0.0030277,-2.25568,4.21524,1.85295,-3.9,4.8,0,12071,49.56,27.516,13636.9
5269944483,0.634768,2.223,105.637,0.398339,0.262076,0.918262,-0.213086,-0.372512,-0.0576858,-2.37429,4.28106,2.04786,-3.9,4.8,0,12071,49.56,27.516,13636.9
5270044834,0.634768,2.223,105.614,0.403543,0.272526,0.91964,-0.75761,-0.271243,-0.0938974,-2.47156,4.18494,2.47831,-3.9,4.8,0,12071,49.56,27.516,13636.9
5270145186,0.634768,2.223,105.588,0.397559,0.267842,0.915536,-1.33498,-0.176062,-0.0967589,-2.55252,4.25746,2.88174,-3.9,4.8,0,12071,49.56,27.516,13636.9
5270245456,0.634768,2.223,105.565,0.382069,0.255673,0.910833,-1.91076,-0.0655724,-0.0754655,-2.42065,4.26789,2.75491,-3.9,4.8,0,12071,49.56,27.516,13636.9
5270345798,0.634768,2.223,105.558,0.362445,0.244164,0.906927,-2.46205,0.0463307,-0.025941,-2.27994,4.12703,2.57123,0.8,-2.2,0,12071,49.56,27.516,13636.9
5270446156,0.634768,2.223,105.57,0.329943,0.230949,0.900036,-2.97378,0.153805,0.0239739,-2.07663,3.83859,2.11163,0.8,-2.2,0,12071,49.56,27.516,13636.9
5270546518,0.634768,2.223,105.587,0.136299,0.0949621,0.864796,-3.43794,0.242546,0.0610593,-1.88029,3.42733,1.424,0.8,-2.2,0,12027,49.53,27.58,13660.4
5270646850,0.634767,2.223,105.61,-0.155778,-0.0896173,0.870365,-3.56105,0.312084,0.115874,0.149623,0.631944,-0.12041,0.8,-2.2,0,12027,49.53,27.58,13660.4
5270747213,0.634767,2.223,105.628,-0.343948,-0.185583,0.900119,-3.33279,0.317784,0.0743078,1.72917,-2.14222,0.33802,0.8,-2.2,0,12027,49.53,27.58,13660.4
5270849464,0.634767,2.223,105.624,-0.43607,-0.230785,0.920697,-2.93382,0.276756,0.0268731,2.32108,-3.34355,1.76149,0.8,-2.2,0,12027,49.53,27.58,13660.4
5270954650,0.634767,2.223,105.614,-0.471264,-0.246331,0.929114,-2.30742,0.207806,0.0162693,2.72218,-3.87404,2.70011,0.8,-2.2,0,12027,49.53,27.58,13660.4
5271054998,0.634767,2.223,105.601,-0.470172,-0.245277,0.92878,-1.75523,0.140156,0.0226307,2.70097,-3.94255,2.87769,0.8,-2.2,0,12027,49.53,27.58,13660.4
5271155344,0.634767,2.223,105.583,-0.455033,-0.235785,0.92425,-1.22785,0.081946,0.0358311,2.57109,-3.63495,2.78511,0.8,-2.2,0,12027,49.53,27.58,13660.4
5271255671,0.634767,2.223,105.574,-0.443055,-0.221051,0.919413,-0.717637,0.0198967,0.0458215,2.50676,-3.67093,2.40794,0.8,-2.2,0,12027,49.53,27.58,13660.4
5271356089,0.634767,2.223,105.581,-0.433102,-0.203724,0.91376,-0.22438,-0.0565038,0.0537708,2.26105,-3.55299,2.29094,-1.7,-1.5,0,12027,49.53,27.58,13660.4
5271456431,0.634767,2.223,105.59,-0.407958,-0.157164,0.901982,0.242213,-0.134432,0.0702104,2.09315,-3.32644,2.21702,-1.7,-1.5,0,12027,49.53,27.58,13660.4
5271556772,0.634767,2.223,105.603,-0.322081,0.0637065,0.868761,0.668458,-0.251256,0.194129,1.28305,-3.05534,1.89432,-1.7,-1.5,0,12027,49.705,24.752,12303
5271657091,0.634767,2.223,105.626,-0.245874,0.237251,0.849866,0.761371,-0.509019,0.152254,-1.80219,-2.2,-0.333638,-1.7,-1.5,0,12027,49.705,24.752,12303
5271757378,0.634767,2.223,105.638,-0.192668,0.294194,0.845553,0.722644,-0.787807,0.0532771,-2.53744,-1.21353,0.420929,-1.7,-1.5,0,12027,49.705,24.752,12303
5271857720,0.634767,2.223,105.665,-0.154102,0.290967,0.848238,0.624768,-1.0766,0.0452782,-2.7617,-0.715867,1.00165,-1.7,-1.5,0,12027,49.705,24.752,12303
5271958084,0.634767,2.223,105.707,-0.123845,0.251936,0.852272,0.518891,-1.32713,0.0420048,-2.60058,-0.570414,0.285162,-1.7,-1.5,0,12027,49.705,24.752,12303
5272058474,0.634767,2.223,105.73,-0.105406,0.20629,0.855268,0.421188,-1.51534,0.043772,-1.95501,-0.277481,0.397244,-1.7,-1.5,0,12027,49.705,24.752,12303
5272158790,0.634767,2.223,105.716,-0.0988373,0.164003,0.857577,0.335375,-1.65674,0.0313668,-1.55837,-0.16944,-0.0226076,-1.7,-1.5,0,12027,49.705,24.752,12303
5272259158,0.634767,2.223,105.704,-0.0970353,0.13041,0.859458,0.281381,-1.76801,0.0215874,-1.09067,-0.200655,0.0977051,-1.7,-1.5,0,12027,49.705,24.752,12303
5272359560,0.634767,2.223,105.708,-0.0956667,0.107768,0.860794,0.234567,-1.8628,0.0202015,-0.890642,-0.200618,0.0483263,-4.7,-1.1,0,12027,49.705,24.752,12303
5272459899,0.634767,2.223,105.709,-0.0774365,0.116993,0.864136,0.196161,-1.94369,0.0249274,-0.541885,-0.20027,0.653607,-4.7,-1.1,0,12027,49.705,24.752,12303
5272560308,0.634767,2.223,105.703,-0.0328989,0.223738,0.867656,0.129612,-2.01577,0.0429242,-1.12805,0.192125,-0.327945,-4.7,-1.1,0,12027,49.705,24.752,12303
5272660683,0.634767,2.223,105.69,-0.00550061,0.331704,0.86704,-0.0591764,-2.15994,-0.0256531,-2.43775,0.491846,-0.0481144,-4.7,-1.1,0,12027,49.388,30.49,15058.4
5272761010,0.634767,2.223,105.672,0.00570043,0.396005,0.865521,-0.358672,-2.37662,-0.0520205,-3.27488,0.808086,1.49892,-4.7,-1.1,0,12027,49.388,30.49,15058.4
5272861354,0.634767,2.223,105.654,-0.00142145,0.418953,0.861639,-0.705352,-2.6346,-0.0409544,-3.55262,0.903897,1.89259,-4.7,-1.1,0,12027,49.388,30.49,15058.4
5272961701,0.634767,2.223,105.635,-0.0187128,0.409867,0.857064,-1.03662,-2.90593,-0.029484,-3.64085,0.71403,1.77995,-4.7,-1.1,0,12027,49.388,30.49,15058.4
5273062041,0.634767,2.223,105.62,-0.0366715,0.362681,0.854958,-1.34905,-3.17064,-0.0096061,-3.38901,0.556588,1.8454,-4.7,-1.1,0,12027,49.388,30.49,15058.4
5273162365,0.634767,2.223,105.61,-0.0590516,0.310932,0.855903,-1.60165,-3.39443,0.0109811,-2.88339,0.353039,1.12103,-4.7,-1.1,0,12027,49.388,30.49,15058.4
5273262688,0.634767,2.223,105.617,-0.0777117,0.265388,0.85819,-1.78493,-3.57128,0.0191796,-2.23529,0.111482,0.57353,-4.7,-1.1,0,12027,49.388,30.49,15058.4
5273362994,0.634767,2.223,105.617,-0.0909304,0.228584,0.860083,-1.9215,-3.72327,0.0362996,-1.76461,-0.0737663,0.693571,3.7,-3.9,0,12027,49.388,30.49,15058.4
5273463313,0.634767,2.223,105.62,-0.102895,0.185505,0.859921,-2.01809,-3.85374,0.0301478,-1.33985,-0.26642,0.443387,3.7,-3.9,0,12027,49.388,30.49,15058.4
5273563655,0.634767,2.223,105.632,-0.142506,-0.0379362,0.865347,-2.09877,-3.98052,0.0700881,-1.10725,-0.321846,0.982244,3.7,-3.9,0,12027,49.388,30.49,15058.4
5273663998,0.634767,2.223,105.645,-0.16196,-0.262603,0.886808,-1.92379,-3.89241,0.136596,2.16725,-0.850845,0.483076,3.7,-3.9,0,12027,49.492,30.593,15141.1
5273764389,0.634767,2.223,105.642,-0.182962,-0.373835,0.90296,-1.64214,-3.66851,0.0489407,3.80279,-0.907157,0.520351,3.7,-3.9,0,12027,49.492,30.593,15141.1
5273864733,0.634767,2.223,105.631,-0.193074,-0.419968,0.911155,-1.26571,-3.37349,0.0124194,4.36054,-0.914495,2.17542,3.7,-3.9,0,12027,49.492,30.593,15141.1
5273965076,0.634767,2.223,105.613,-0.191677,-0.429798,0.912949,-0.852391,-3.04197,-0.00522967,4.65085,-0.848384,2.25961,3.7,-3.9,0,12027,49.492,30.593,15141.1
5274065422,0.634767,2.223,105.601,-0.185585,-0.423679,0.912722,-0.439749,-2.70491,-0.00206721,4.53103,-0.841464,2.53386,3.7,-3.9,0,12027,49.492,30.593,15141.1
5274165777,0.634767,2.223,105.577,-0.179905,-0.413733,0.91189,-0.0308599,-2.38408,-0.00660591,4.42743,-0.910142,2.27692,3.7,-3.9,0,12027,49.492,30.593,15141.1
5274266138,0.634767,2.223,105.545,-0.176119,-0.402118,0.910732,0.352387,-2.06221,-0.018533,4.23832,-0.748353,2.17151,3.7,-3.9,0,12027,49.492,30.593,15141.1
5274366534,0.634767,2.223,105.533,-0.181955,-0.38953,0.909555,0.746365,-1.74471,-0.00905511,4.12568,-0.776807,2.41673,4.1,0.5,0,12027,49.492,30.593,15141.1
5274466889,0.634767,2.223,105.53,-0.180627,-0.376004,0.906013,1.12659,-1.44554,0.015309,3.99914,-0.830059,1.99218,4.1,0.5,0,12027,49.492,30.593,15141.1
5274567292,0.634767,2.223,105.526,-0.024237,-0.369736,0.868368,1.51209,-1.15447,0.0822632,3.81891,-0.778094,2.41439,4.1,0.5,0,12027,49.492,30.593,15141.1
5274667694,0.634767,2.223,105.544,0.124785,-0.355924,0.840105,1.70622,-0.735654,0.129675,3.76443,1.31576,1.47488,4.1,0.5,0,12027,49.644,26.81,13309.6
5274768045,0.634767,2.223,105.561,0.196627,-0.341112,0.835128,1.77786,-0.297047,0.089585,3.47285,2.29367,0.925147,4.1,0.5,0,12027,49.644,26.81,13309.6
5274868304,0.634767,2.223,105.573,0.226515,-0.323901,0.837751,1.79968,0.172292,0.0612256,3.15387,2.61349,1.74944,4.1,0.5,0,12027,49.644,26.81,13309.6
5274968597,0.634767,2.223,105.587,0.231851,-0.310426,0.843193,1.78433,0.637789,0.048569,2.97556,2.83301,1.5323,4.1,0.5,0,12027,49.644,26.81,13309.6
5275068908,0.634767,2.223,105.581,0.212526,-0.311127,0.84708,1.75973,1.08206,0.0260276,2.81872,2.79907,1.50119,4.1,0.5,0,12027,49.644,26.81,13309.6
5275169259,0.634767,2.223,105.554,0.180669,-0.315902,0.850067,1.75608,1.51383,0.021772,2.77217,2.44533,1.94699,4.1,0.5,0,12027,49.644,26.81,13309.6
5275269676,0.634767,2.223,105.557,0.14432,-0.292911,0.85804,1.7814,1.92,0.00905985,3.00776,2.25223,0.688659,4.1,0.5,0,12027,49.644,26.81,13309.6
5275370083,0.634767,2.223,105.567,0.101486,-0.264474,0.862629,1.7974,2.27616,0.0494752,2.4852,1.8791,1.28992,1.7,-0.1,0,12027,49.644,26.81,13309.6
5275470399,0.634767,2.223,105.579,0.0625437,-0.21632,0.866784,1.8329,2.56359,0.0605162,2.18106,1.38421,0.721096,1.7,-0.1,0,12027,49.644,26.81,13309.6
5275570781,0.634767,2.223,105.598,-0.0156034,-0.013081,0.871821,1.86651,2.8028,0.118795,1.71036,1.03478,0.666594,1.7,-0.1,0,12027,49.644,26.81,13309.6
5275671146,0.634767,2.223,105.616,-0.0843314,0.149692,0.862179,1.75948,2.71804,0.116608,-1.51553,-0.198862,-0.863542,1.7,-0.1,0,11988,49.59,25.222,12507.6
5275771492,0.634767,2.223,105.621,-0.120881,0.221878,0.851721,1.63775,2.50899,0.0471142,-2.34218,-0.535401,0.484792,1.7,-0.1,0,11988,49.59,25.222,12507.6
5275871871,0.634768,2.223,105.628,-0.133009,0.230376,0.848329,1.51415,2.25471,0.0295233,-2.58064,-0.768977,0.543838,1.7,-0.1,0,11988,49.59,25.222,12507.6
5275972206,0.634768,2.223,105.643,-0.126129,0.201874,0.850965,1.40056,2.0197,0.0171821,-2.31186,-0.714187,0.305191,1.7,-0.1,0,11988,49.59,25.222,12507.6
5276072556,0.634768,2.223,105.651,-0.115293,0.158909,0.855036,1.30225,1.82202,0.00236867,-1.91389,-0.607236,0.366665,1.7,-0.1,0,11988,49.59,25.222,12507.6
5276173188,0.634768,2.223,105.638,-0.101617,0.113331,0.858272,1.22889,1.65027,0.0095183,-1.49029,-0.535772,0.26081,1.7,-0.1,0,11988,49.59,25.222,12507.6
5276274539,0.634768,2.223,105.633,-0.0881145,0.0724225,0.860919,1.17094,1.53005,0.0168969,-1.04133,-0.280106,0.0100053,1.7,-0.1,0,11988,49.59,25.222,12507.6
5276374944,0.634768,2.223,105.639,-0.0846041,0.0440026,0.862784,1.12439,1.45023,0.02165,-0.664025,-0.181043,0.0965591,-0.2,-2.8,0,11988,49.59,25.222,12507.6
5276475302,0.634768,2.223,105.647,-0.0918529,0.0307769,0.862389,1.10002,1.38188,0.0254715,-0.359606,-0.199023,0.181964,-0.2,-2.8,0,11988,49.59,25.222,12507.6
5276575590,0.634768,2.223,105.649,-0.179262,0.099748,0.856687,1.09455,1.30299,0.0531591,-0.574588,-0.582566,-0.276446,-0.2,-2.8,0,11988,49.59,25.222,12507.6
5276675946,0.634768,2.223,105.652,-0.285941,0.168107,0.841316,1.10386,1.08523,-0.00262107,-1.42306,-1.5995,0.261198,-0.2,-2.8,0,11988,49.545,26.349,13054.6
5276776358,0.634768,2.223,105.652,-0.358013,0.207171,0.826609,1.16571,0.74164,-0.0172092,-1.90356,-2.50304,1.1084,-0.2,-2.8,0,11988,49.545,26.349,13054.6
5276876766,0.634768,2.223,105.656,-0.396326,0.221014,0.819046,1.25229,0.328782,-0.00684899,-2.20458,-2.95582,1.60281,-0.2,-2.8,0,11988,49.545,26.349,13054.6
5276977085,0.634768,2.223,105.661,-0.4076,0.213736,0.819531,1.35297,-0.102421,0.00951257,-2.14565,-2.95949,2.04876,-0.2,-2.8,0,11988,49.545,26.349,13054.6
5277077505,0.634768,2.223,105.674,-0.380694,0.186196,0.828798,1.4695,-0.525411,0.0310654,-2.05769,-3.10913,1.71571,-0.2,-2.8,0,11988,49.545,26.349,13054.6
5277177867,0.634768,2.223,105.677,-0.337393,0.147022,0.841929,1.571,-0.877841,0.0495894,-1.72676,-2.71004,1.0527,-0.2,-2.8,0,11988,49.545,26.349,13054.6
5277278216,0.634768,2.223,105.677,-0.296029,0.109191,0.852874,1.67589,-1.15002,0.0459145,-1.08871,-2.26541,0.86748,-0.2,-2.8,0,11988,49.545,26.349,13054.6
5277378574,0.634768,2.223,105.681,-0.256739,0.0802613,0.859429,1.77201,-1.36355,0.0409548,-0.745583,-1.81264,0.67605,-4.9,0.1,0,11988,49.545,26.349,13054.6
5277478870,0.634768,2.223,105.679,-0.206115,0.080797,0.862849,1.85573,-1.52293,0.0419143,-0.430192,-1.39978,0.602461,-4.9,0.1,0,11988,49.545,26.349,13054.6
5277579228,0.634768,2.223,105.678,-0.0443477,0.214717,0.873048,1.88566,-1.66994,0.11505,-0.977125,-0.694538,0.739878,-4.9,0.1,0,11988,49.545,26.349,13054.6
5277679569,0.634768,2.223,105.693,0.0931303,0.308417,0.887404,1.66265,-1.80196,0.0802043,-2.50715,1.15014,-0.282989,-4.9,0.1,0,11988,49.545,26.349,13054.6
5277779916,0.634768,2.223,105.696,0.169632,0.361848,0.896647,1.31866,-1.9231,0.00860482,-2.93866,1.95322,1.22972,-4.9,0.1,0,11988,49.666,24.606,12220.8
5277880360,0.634768,2.223,105.698,0.20652,0.382738,0.899451,0.880213,-2.03747,0.00696163,-3.31533,2.4942,1.67545,-4.9,0.1,0,11988,49.666,24.606,12220.8
5277980707,0.634768,2.223,105.706,0.213699,0.391515,0.89723,0.42258,-2.13674,-0.0165393,-3.37508,2.63386,1.72088,-4.9,0.1,0,11988,49.666,24.606,12220.8
5278081056,0.634768,2.223,105.694,0.20121,0.390385,0.892825,-0.0453229,-2.23666,-0.0342771,-3.29338,2.56251,2.04981,-4.9,0.1,0,11988,49.666,24.606,12220.8
5278181412,0.634768,2.223,105.66,0.18372,0.380618,0.887938,-0.500475,-2.3484,-0.0343085,-3.29074,2.38859,2.09747,-4.9,0.1,0,11988,49.666,24.606,12220.8
5278281713,0.634768,2.223,105.635,0.158315,0.376103,0.884261,-0.949836,-2.45311,-0.0344405,-3.25771,2.41495,1.83871,-4.9,0.1,0,11988,49.666,24.606,12220.8
5278382100,0.634768,2.223,105.619,0.129452,0.376356,0.88202,-1.3789,-2.5781,-0.0321912,-3.22124,2.06675,1.93073,3.6,-1.9,0,11988,49.666,24.606,12220.8
5278482466,0.634768,2.223,105.618,0.0943027,0.355723,0.876101,-1.77235,-2.71179,-0.012369,-3.22973,1.82926,1.29221,3.6,-1.9,0,11988,49.666,24.606,12220.8
5278582811,0.634768,2.223,105.614,0.0314614,0.120411,0.861055,-2.14789,-2.86124,0.0342118,-2.9149,1.58025,1.29214,3.6,-1.9,0,11988,49.666,24.606,12220.8
5278683161,0.634768,2.223,105.623,-0.0559777,-0.193242,0.870183,-2.23186,-2.80365,0.0669626,0.591568,0.653213,-0.211304,3.6,-1.9,0,11988,49.666,24.606,12220.8
5278785396,0.634768,2.223,105.639,-0.118085,-0.362606,0.890154,-2.03513,-2.55594,0.00680184,3.37999,-0.150953,0.492643,3.6,-1.9,0,11988,49.666,24.684,12259.6
5278889451,0.634768,2.223,105.638,-0.15424,-0.441836,0.904647,-1.70763,-2.22845,-0.0176858,4.3894,-0.496147,1.93891,3.6,-1.9,0,11988,49.666,24.684,12259.6
5278989817,0.634768,2.223,105.624,-0.165273,-0.466502,0.910133,-1.30091,-1.86854,-0.0187588,4.90298,-0.800365,2.37359,3.6,-1.9,0,11988,49.666,24.684,12259.6
5279090177,0.634768,2.223,105.605,-0.165841,-0.464232,0.909892,-0.873471,-1.49443,-0.0313468,4.94403,-0.806722,2.61104,3.6,-1.9,0,11988,49.666,24.684,12259.6
5279190498,0.634768,2.223,105.576,-0.166832,-0.449281,0.90744,-0.453569,-1.12462,-0.0171169,4.64154,-0.740413,2.80017,3.6,-1.9,0,11988,49.666,24.684,12259.6
5279290843,0.634768,2.223,105.555,-0.173801,-0.434124,0.905779,0.031733,-0.712856,-0.00509178,4.42789,-0.779861,2.35685,3.6,-1.9,0,11988,49.666,24.684,12259.6
5279391259,0.634768,2.223,105.546,-0.179274,-0.41458,0.903791,0.423778,-0.399521,-0.00555926,4.10967,-0.796824,2.29806,2.1,-1.2,0,11988,49.666,24.684,12259.6
5279491575,0.634768,2.223,105.533,-0.180391,-0.38285,0.900547,0.819312,-0.110142,0.00741442,4.00524,-0.978442,2.06447,2.1,-1.2,0,11988,49.666,24.684,12259.6
5279591943,0.634768,2.223,105.532,-0.157417,-0.310809,0.89012,1.17428,0.142071,0.0425779,3.31509,-0.822497,1.7179,2.1,-1.2,0,11988,49.666,24.684,12259.6
5279692354,0.634768,2.223,105.533,-0.141006,-0.23923,0.880348,1.44223,0.320894,0.0631719,2.55099,-0.755737,0.848666,2.1,-1.2,0,11988,49.666,24.684,12259.6
5279792734,0.634768,2.223,105.542,-0.125449,-0.179075,0.874305,1.62857,0.441509,0.0710432,1.69787,-0.538541,0.320382,2.1,-1.2,0,11988,49.666,24.684,12259.6
5279893095,0.634768,2.223,105.559,-0.113763,-0.137715,0.870859,1.76392,0.527095,0.073651,1.18968,-0.386277,0.137706,2.1,-1.2,0,11988,49.666,24.684,12259.6
5279993447,0.634768,2.223,105.585,-0.103023,-0.104565,0.868779,1.85607,0.585673,0.0719063,0.741184,-0.259038,-0.021889,2.1,-1.2,0,11988,49.666,24.684,12259.6
5280093809,0.634768,2.223,105.61,-0.0951358,-0.0861194,0.867981,1.93137,0.635475,0.0784518,0.687199,-0.131238,0.11058,2.1,-1.2,0,11988,49.666,24.684,12259.6
5280194178,0.634768,2.223,105.633,-0.0927772,-0.0754497,0.867002,1.98502,0.679689,0.0687979,0.549422,-0.0766323,0.0528983,2.1,-1.2,0,11988,49.666,24.684,12259.6
5280294543,0.634768,2.223,105.654,-0.0896232,-0.0684569,0.866985,2.03354,0.703485,0.061892,0.41583,-0.17159,-0.00457758,2.1,-1.2,0,11943,49.641,25.681,12748.3
5280394939,0.634768,2.223,105.678,-0.088815,-0.0644619,0.867172,2.0597,0.726231,0.054164,0.333033,-0.0430079,-0.352533,-4.4,4.9,0,11943,49.641,25.681,12748.3
5280495333,0.634768,2.223,105.691,-0.0660353,-0.0314339,0.867751,2.09462,0.747443,0.0484933,0.457525,-0.13385,0.29972,-4.4,4.9,0,11943,49.641,25.681,12748.3
5280595692,0.634768,2.223,105.702,0.0682203,0.128575,0.87195,2.06689,0.752011,0.12422,-0.564177,0.524315,0.369314,-4.4,4.9,0,11943,49.641,25.681,12748.3
5280696082,0.634768,2.223,105.715,0.208357,0.259188,0.895459,1.751,0.709805,0.0997477,-2.33414,2.19911,0.331133,-4.4,4.9,0,11943,49.641,25.681,12748.3
5280796416,0.634768,2.223,105.716,0.272504,0.316508,0.913773,1.31122,0.661838,0.0476182,-3.01931,2.97552,1.33503,-4.4,4.9,0,11943,49.641,25.681,12748.3
5280896753,0.634768,2.223,105.712,0.313671,0.349211,0.926419,0.791303,0.616317,0.0128927,-3.22207,3.27817,2.18868,-4.4,4.9,0,11943,49.641,25.681,12748.3
5280997052,0.634768,2.223,105.715,0.336793,0.364587,0.933378,0.228381,0.562123,-0.0120277,-3.56387,3.57728,2.1601,-4.4,4.9,0,11943,49.641,25.681,12748.3
5281097405,0.634768,2.223,105.707,0.351787,0.36555,0.933948,-0.36953,0.506122,-0.0405726,-3.42767,3.62263,2.84445,-4.4,4.9,0,11943,49.641,25.681,12748.3
5281197768,0.634768,2.223,105.683,0.358006,0.360477,0.932313,-0.975189,0.458406,-0.0578373,-3.53962,3.73068,2.74284,-4.4,4.9,0,11943,49.641,25.681,12748.3
5281298080,0.634768,2.223,105.664,0.355387,0.352052,0.92915,-1.58641,0.424879,-0.065488,-3.35754,3.73936,2.92088,-4.4,4.9,0,11943,49.448,29.034,14356.7
5281398493,0.634768,2.223,105.663,0.338991,0.341054,0.924797,-2.18337,0.397055,-0.0638974,-3.34091,3.7801,2.50001,-1.8,2.3,0,11943,49.448,29.034,14356.7
5281498745,0.634768,2.223,105.664,0.286719,0.304013,0.9076,-2.75861,0.363223,-0.0529164,-3.30713,3.64239,2.12439,-1.8,2.3,0,11943,49.448,29.034,14356.7
5281599106,0.634768,2.223,105.662,0.128564,0.16714,0.873601,-3.24313,0.328222,0.00843255,-2.49042,2.71361,1.85556,-1.8,2.3,0,11943,49.448,29.034,14356.7
5281699405,0.634768,2.223,105.67,-0.00496097,0.0613298,0.867223,-3.44002,0.308899,0.0305757,-1.05796,1.03638,-0.344497,-1.8,2.3,0,11943,49.448,29.034,14356.7
5281799760,0.634768,2.223,105.679,-0.0807699,0.00383828,0.869673,-3.48258,0.295272,0.0101128,-0.0605127,-0.0342432,0.0750487,-1.8,2.3,0,11943,49.448,29.034,14356.7
5281900117,0.634768,2.223,105.679,-0.11452,-0.0209393,0.871547,-3.44652,0.267934,0.0154751,0.309285,-0.621185,0.129824,-1.8,2.3,0,11943,49.448,29.034,14356.7
5282000467,0.634768,2.223,105.674,-0.118739,-0.0267122,0.871411,-3.38051,0.243389,0.0047202,0.419123,-0.776679,0.143156,-1.8,2.3,0,11943,49.448,29.034,14356.7
5282100818,0.634767,2.223,105.672,-0.10801,-0.0225587,0.870574,-3.30774,0.219865,5.86083e-05,0.45792,-0.753162,0.245881,-1.8,2.3,0,11943,49.448,29.034,14356.7
5282201162,0.634767,2.223,105.659,-0.0919435,-0.0145353,0.86947,-3.23463,0.199354,0.00579951,0.433274,-0.695974,-0.0189487,-1.8,2.3,0,11943,49.448,29.034,14356.7
5282301537,0.634767,2.223,105.646,-0.0746567,-0.00695273,0.868807,-3.18341,0.175499,-0.00360711,0.203589,-0.499061,0.206246,-1.8,2.3,0,11943,49.448,29.034,14356.7
5282401968,0.634767,2.223,105.644,-0.0599495,-2.86028e-05,0.86838,-3.1356,0.15663,0.0129047,0.181147,-0.423049,0.0954796,-1.8,0.7,0,11943,49.499,27.692,13707.3
5282502303,0.634767,2.223,105.634,-0.0635973,0.00790946,0.870295,-3.09316,0.156863,0.00363851,0.245988,-0.270115,-0.0548248,-1.8,0.7,0,11943,49.499,27.692,13707.3
5282602625,0.634767,2.223,105.621,-0.154934,0.0186374,0.867651,-3.0519,0.143644,0.0284128,0.095446,-0.528799,0.0558943,-1.8,0.7,0,11943,49.499,27.692,13707.3
5282702987,0.634767,2.223,105.614,-0.243582,0.0255383,0.865698,-2.9311,0.0414137,0.0101487,-0.0598687,-1.49359,0.289342,-1.8,0.7,0,11943,49.499,27.692,13707.3
5282803318,0.634767,2.223,105.622,-0.284022,0.0285759,0.86545,-2.75181,-0.119692,-0.00473173,-0.129616,-2.24569,0.611838,-1.8,0.7,0,11943,49.499,27.692,13707.3
5282903710,0.634767,2.223,105.621,-0.277883,0.0302216,0.866035,-2.54115,-0.298694,0.0339155,-0.121375,-2.42895,0.857025,-1.8,0.7,0,11943,49.499,27.692,13707.3
5283004097,0.634767,2.223,105.63,-0.248492,0.0308242,0.866601,-2.35296,-0.462411,0.0345098,-0.113033,-2.25114,0.652713,-1.8,0.7,0,11943,49.499,27.692,13707.3
5283104485,0.634767,2.223,105.642,-0.207461,0.0294696,0.867516,-2.19574,-0.606645,0.0492769,-0.181055,-1.82154,0.542371,-1.8,0.7,0,11943,49.499,27.692,13707.3
5283204835,0.634767,2.223,105.649,-0.169306,0.0276056,0.868418,-2.07991,-0.711258,0.0457185,-0.103269,-1.31011,0.354086,-1.8,0.7,0,11943,49.499,27.692,13707.3
5283305372,0.634767,2.223,105.662,-0.139966,0.0245548,0.868798,-1.99049,-0.801601,0.0459873,-0.147525,-1.06853,0.0460582,-1.8,0.7,0,11943,49.499,27.692,13707.3
5283407349,0.634767,2.223,105.673,-0.11707,0.0232438,0.86916,-1.92401,-0.853606,0.0360464,-0.0152755,-0.755161,-0.251497,-0.2,3.5,0,11943,49.491,26.098,12916.2
5283507731,0.634767,2.223,105.676,-0.0888683,0.0140857,0.870132,-1.87205,-0.89242,0.0191054,-0.0200193,-0.438492,0.0649404,-0.2,3.5,0,11943,49.491,26.098,12916.2
5283608084,0.634767,2.223,105.673,0.0831647,-0.0823309,0.865872,-1.83474,-0.917625,0.058057,0.212195,-0.0784872,0.165388,-0.2,3.5,0,11943,49.491,26.098,12916.2
5283708437,0.634767,2.223,105.682,0.240843,-0.162909,0.847754,-1.88476,-0.693739,0.0428052,1.4608,2.18012,-0.0867122,-0.2,3.5,0,11943,49.491,26.098,12916.2
5283808801,0.634767,2.223,105.682,0.3351,-0.210797,0.829868,-1.99655,-0.33037,-0.00875433,1.94753,3.17691,1.21603,-0.2,3.5,0,11943,49.491,26.098,12916.2
5283909143,0.634767,2.223,105.681,0.37231,-0.22309,0.822549,-2.14127,0.138061,-0.0322327,2.43178,3.89456,1.83487,-0.2,3.5,0,11943,49.491,26.098,12916.2
5284009502,0.634767,2.223,105.679,0.339909,-0.198238,0.830901,-2.30054,0.634636,-0.0250187,2.38313,3.93974,2.02932,-0.2,3.5,0,11943,49.491,26.098,12916.2
5284109856,0.634767,2.223,105.668,0.27403,-0.159951,0.843089,-2.4487,1.05601,-0.0191777,1.98058,3.45424,1.50568,-0.2,3.5,0,11943,49.491,26.098,12916.2
5284210229,0.634767,2.223,105.663,0.2028,-0.120543,0.852876,-2.56781,1.40283,-0.00654639,1.64938,2.80781,0.914199,-0.2,3.5,0,11943,49.491,26.098,12916.2
5284310583,0.634767,2.223,105.652,0.141857,-0.0878024,0.85844,-2.65679,1.6664,0.0123367,1.2615,2.0929,0.622818,-0.2,3.5,0,11943,49.491,26.098,12916.2
5284410994,0.634767,2.223,105.653,0.0924499,-0.0612219,0.862122,-2.73565,1.87721,0.0193735,0.729715,1.34653,0.308851,3.9,-2.5,0,11943,49.442,28.238,13961.4
5284511343,0.634767,2.223,105.65,0.0438194,-0.0490038,0.863963,-2.78658,2.0112,0.020441,0.568279,1.08064,0.419433,3.9,-2.5,0,11943,49.442,28.238,13961.4
5284611681,0.634767,2.223,105.645,-0.1151,-0.112414,0.873867,-2.77554,2.09384,0.0506889,0.788318,-0.105162,-0.0258356,3.9,-2.5,0,11943,49.442,28.238,13961.4
5284712066,0.634767,2.223,105.646,-0.263156,-0.17748,0.890558,-2.55864,2.11491,-0.00119065,1.57836,-1.79789,0.373065,3.9,-2.5,0,11943,49.442,28.238,13961.4
5284812507,0.634767,2.223,105.647,-0.357499,-0.220718,0.905314,-2.19114,2.10179,-0.0297075,2.08555,-2.83603,1.68163,3.9,-2.5,0,11943,49.442,28.238,13961.4
5284912828,0.634766,2.223,105.635,-0.400814,-0.240848,0.91311,-1.73598,2.06742,-0.0296919,2.37627,-3.30619,2.24674,3.9,-2.5,0,11943,49.442,28.238,13961.4
5285013190,0.634766,2.223,105.626,-0.414011,-0.249615,0.916277,-1.25098,2.02826,-0.0133157,2.4722,-3.37834,2.47328,3.9,-2.5,0,11943,49.442,28.238,13961.4
5285113537,0.634766,2.223,105.618,-0.409357,-0.248897,0.914888,-0.763839,1.98253,-0.0067395,2.48725,-3.51664,2.18798,3.9,-2.5,0,11943,49.442,28.238,13961.4
5285213854,0.634766,2.223,105.6,-0.397556,-0.244591,0.912808,-0.291938,1.93905,0.000760263,2.40867,-3.25499,2.27186,3.9,-2.5,0,11943,49.442,28.238,13961.4
5285314190,0.634766,2.223,105.6,-0.386816,-0.238619,0.910343,0.155607,1.89383,0.0167241,2.29954,-3.19083,1.91328,3.9,-2.5,0,11943,49.442,28.238,13961.4
5285415340,0.634766,2.223,105.622,-0.374878,-0.232519,0.907916,0.582583,1.83989,0.023608,2.14639,-3.10112,1.74521,3.2,-3.8,0,11943,49.437,27.175,13434.5
5285515881,0.634766,2.223,105.641,-0.37094,-0.207902,0.901799,0.998573,1.78995,0.0462859,2.04451,-2.7642,2.28611,3.2,-3.8,0,11943,49.437,27.175,13434.5
5285616308,0.634766,2.223,105.661,-0.380361,-0.158809,0.897438,1.38004,1.703,0.0604752,1.55529,-3.02579,1.18836,3.2,-3.8,0,11943,49.437,27.175,13434.5
5285716793,0.634767,2.223,105.682,-0.39188,-0.127125,0.891199,1.71692,1.57184,0.0396138,1.10374,-3.12939,0.925911,3.2,-3.8,0,11943,49.437,27.175,13434.5
5285817234,0.634767,2.223,105.7,-0.397055,-0.110751,0.886153,2.03317,1.41137,0.0221849,0.781702,-2.95652,1.31438,3.2,-3.8,0,11943,49.437,27.175,13434.5
5285919090,0.634767,2.223,105.718,-0.394306,-0.104193,0.882411,2.3492,1.24176,0.0321077,0.710045,-3.02586,1.19964,3.2,-3.8,0,11943,49.437,27.175,13434.5
5286019454,0.634767,2.223,105.736,-0.391415,-0.10616,0.88166,2.64266,1.07355,0.0190494,0.631492,-2.95741,1.02195,3.2,-3.8,0,11943,49.437,27.175,13434.5
5286119760,0.634767,2.223,105.749,-0.386311,-0.112558,0.882901,2.93009,0.918339,0.0022152,0.734078,-2.91508,0.970263,3.2,-3.8,0,11943,49.437,27.175,13434.5
5286220126,0.634767,2.223,105.752,-0.379735,-0.119273,0.884541,3.21912,0.777886,-0.00896398,0.879035,-2.83312,0.952988,3.2,-3.8,0,11943,49.437,27.175,13434.5
5286320453,0.634767,2.223,105.761,-0.371136,-0.121922,0.884879,3.50831,0.647977,-0.00698798,0.877594,-2.65589,1.28497,3.2,-3.8,0,11943,49.437,27.175,13434.5
5286420871,0.634767,2.223,105.768,-0.346108,-0.119239,0.883306,3.77179,0.51966,-0.00738404,0.84271,-2.65567,0.645519,-3,3.1,0,11899,49.38,28.26,13954.8
5286521221,0.634767,2.223,105.78,-0.282011,-0.0789069,0.875815,4.01801,0.41807,0.00272064,0.971383,-2.23708,1.09427,-3,3.1,0,11899,49.38,28.26,13954.8
5286621574,0.634767,2.223,105.792,-0.0533597,0.0917862,0.867294,4.17695,0.319202,0.102357,0.0946236,-1.32166,1.21633,-3,3.1,0,11899,49.38,28.26,13954.8
5286721919,0.634767,2.223,105.809,0.175784,0.222107,0.887719,3.95198,0.237762,0.168532,-1.99585,1.4903,0.675179,-3,3.1,0,11899,49.38,28.26,13954.8
5286822298,0.634767,2.223,105.825,0.283136,0.281937,0.906575,3.53325,0.21024,0.113032,-2.65514,2.95138,1.09533,-3,3.1,0,11899,49.38,28.26,13954.8
5286922659,0.634767,2.223,105.836,0.33763,0.310503,0.917607,3.0218,0.199713,0.0540533,-3.08829,3.61918,1.60146,-3,3.1,0,11899,49.38,28.26,13954.8
5287023018,0.634767,2.223,105.846,0.362391,0.32626,0.923452,2.46587,0.202134,-0.000399105,-3.20082,3.92697,1.9766,-3,3.1,0,11899,49.38,28.26,13954.8
5287123374,0.634767,2.223,105.84,0.374024,0.332491,0.925471,1.86563,0.206586,-0.0523953,-3.27608,3.99119,2.50768,-3,3.1,0,11899,49.38,28.26,13954.8
5287223725,0.634767,2.223,105.815,0.3794,0.341097,0.927256,1.25876,0.21288,-0.0906463,-3.23587,4.0259,2.62263,-3,3.1,0,11899,49.38,28.26,13954.8
5287324110,0.634767,2.223,105.795,0.383876,0.352373,0.930609,0.635605,0.218406,-0.114918,-3.31836,4.05589,2.87914,-3,3.1,0,11899,49.38,28.26,13954.8
5287424489,0.634767,2.223,105.777,0.381388,0.363301,0.9328,-0.00882626,0.214586,-0.136877,-3.53088,4.13608,2.6769,-0.2,-2.7,0,11899,49.253,30.913,15225.6
5287524808,0.634767,2.223,105.766,0.348102,0.355572,0.923314,-0.667993,0.190562,-0.148508,-3.5518,3.96801,3.16157,-0.2,-2.7,0,11899,49.253,30.913,15225.6
5287625109,0.634767,2.223,105.735,0.184606,0.260086,0.862577,-1.3222,0.158461,-0.068605,-3.57467,3.63204,2.79764,-0.2,-2.7,0,11899,49.253,30.913,15225.6
5287725422,0.634767,2.223,105.71,-0.0731851,0.0945152,0.836505,-1.66965,0.115414,-0.0571734,-2.1887,1.52673,-0.19615,-0.2,-2.7,0,11899,49.253,30.913,15225.6
5287825784,0.634767,2.223,105.693,-0.300721,-0.0201382,0.857144,-1.66262,0.0299302,-0.133137,-0.195347,-1.40367,-0.55299,-0.2,-2.7,0,11899,49.253,30.913,15225.6
5287926988,0.634767,2.223,105.672,-0.421857,-0.0804856,0.881325,-1.42605,-0.124311,-0.160204,0.567628,-2.90552,1.62089,-0.2,-2.7,0,11899,49.253,30.913,15225.6
5288032561,0.634767,2.223,105.629,-0.47181,-0.103896,0.893828,-1.04853,-0.324024,-0.118829,0.985082,-3.72563,2.63683,-0.2,-2.7,0,11899,49.253,30.913,15225.6
5288132912,0.634767,2.223,105.606,-0.482183,-0.108597,0.897912,-0.539324,-0.564269,-0.0713363,1.17919,-4.09916,2.54115,-0.2,-2.7,0,11899,49.253,30.913,15225.6
5288233275,0.634767,2.223,105.592,-0.478617,-0.103652,0.897024,-0.115823,-0.760531,-0.0361752,1.14617,-3.81913,2.78983,-0.2,-2.7,0,11899,49.253,30.913,15225.6
5288333638,0.634767,2.223,105.583,-0.471072,-0.0953561,0.894556,0.294607,-0.962579,-0.0110789,1.04903,-3.87237,2.36024,-0.2,-2.7,0,11899,49.253,30.913,15225.6
5288434081,0.634767,2.223,105.589,-0.437781,-0.0819975,0.889543,0.692396,-1.15255,0.0148276,0.97739,-3.59651,2.26928,-3.1,-1.6,0,11899,49.253,30.913,15225.6
5288534835,0.634767,2.223,105.609,-0.368368,-0.0408445,0.879616,1.03689,-1.31818,0.0509521,0.918301,-3.08431,1.92987,-3.1,-1.6,0,11899,49.576,29.239,14495.5
5288639795,0.634767,2.223,105.636,-0.196918,0.182925,0.863568,1.26046,-1.49351,0.165969,-0.290094,-2.07637,1.24543,-3.1,-1.6,0,11899,49.576,29.239,14495.5
5288743528,0.634767,2.223,105.661,-0.0836216,0.319109,0.863162,1.15101,-1.72491,0.154372,-2.71685,-0.353102,-0.0711942,-3.1,-1.6,0,11899,49.576,29.239,14495.5
5288843831,0.634767,2.223,105.691,-0.033774,0.387383,0.863857,0.9277,-1.95911,0.0858711,-3.33699,0.504998,0.832192,-3.1,-1.6,0,11899,49.576,29.239,14495.5
5288944228,0.634767,2.223,105.745,-0.0156473,0.387836,0.863506,0.631287,-2.2292,0.0711504,-3.77197,0.694201,1.35609,-3.1,-1.6,0,11899,49.576,29.239,14495.5
5289044581,0.634767,2.223,105.782,-0.0189663,0.347204,0.861422,0.350773,-2.46296,0.0442864,-3.46369,0.725227,0.786629,-3.1,-1.6,0,11899,49.576,29.239,14495.5
5289144941,0.634767,2.223,105.782,-0.0283937,0.292946,0.860488,0.110495,-2.65926,0.0148612,-2.93889,0.605284,0.391867,-3.1,-1.6,0,11899,49.576,29.239,14495.5
5289245274,0.634767,2.223,105.778,-0.0384772,0.242893,0.860938,-0.0889424,-2.81406,-0.00255742,-2.33158,0.592266,0.417233,-3.1,-1.6,0,11899,49.576,29.239,14495.5
5289345555,0.634767,2.223,105.784,-0.0509746,0.202951,0.862547,-0.250937,-2.93584,-0.0144036,-1.83082,0.383147,0.145469,-3.1,-1.6,0,11899,49.576,29.239,14495.5
5289445910,0.634767,2.223,105.781,-0.0612572,0.166084,0.863667,-0.386794,-3.03393,-0.0286389,-1.54134,0.304709,-0.209778,-5,-4.1,0,11899,49.576,29.239,14495.5
5289546268,0.634767,2.223,105.761,-0.08073,0.145827,0.86301,-0.486338,-3.09783,-0.0341269,-1.04796,0.282743,0.229758,-5,-4.1,0,11899,49.516,25.599,12675.6
5289646638,0.634767,2.223,105.748,-0.159643,0.173345,0.852568,-0.560337,-3.16312,-0.0268622,-1.02211,-0.125721,-0.472121,-5,-4.1,0,11899,49.516,25.599,12675.6
5289746990,0.634767,2.223,105.738,-0.242676,0.204815,0.841932,-0.602213,-3.31765,-0.0940867,-1.33283,-0.855135,0.475185,-5,-4.1,0,11899,49.516,25.599,12675.6
5289848348,0.634767,2.223,105.721,-0.295501,0.224634,0.834666,-0.605377,-3.57297,-0.0969433,-1.65156,-1.59042,1.21169,-5,-4.1,0,11899,49.516,25.599,12675.6
5289955364,0.634767,2.223,105.712,-0.327589,0.242235,0.829675,-0.57739,-3.93353,-0.0843184,-1.85978,-1.96829,1.38502,-5,-4.1,0,11899,49.516,25.599,12675.6
5290055732,0.634767,2.223,105.701,-0.337592,0.245011,0.82868,-0.556854,-4.25574,-0.0738451,-2.0002,-2.11375,1.42322,-5,-4.1,0,11899,49.516,25.599,12675.6
5290156077,0.634767,2.223,105.693,-0.343141,0.243191,0.828119,-0.525347,-4.58127,-0.0572084,-1.94611,-2.16276,1.42075,-5,-4.1,0,11899,49.516,25.599,12675.6
5290256428,0.634767,2.223,105.691,-0.346014,0.241339,0.828573,-0.487191,-4.9075,-0.0457693,-1.91657,-2.20388,1.50395,-5,-4.1,0,11899,49.516,25.599,12675.6
5290356768,0.634767,2.223,105.702,-0.331718,0.228092,0.832544,-0.456466,-5.21573,-0.0312571,-1.97907,-2.1372,0.975729,-5,-4.1,0,11899,49.516,25.599,12675.6
5290457154,0.634767,2.223,105.716,-0.306098,0.203722,0.839869,-0.413199,-5.48993,-0.0135739,-1.55121,-1.83829,1.28176,0.5,1.8,0,11899,49.516,25.599,12675.6
5290557479,0.634767,2.223,105.729,-0.259024,0.15984,0.85163,-0.385353,-5.72153,0.00731814,-1.4157,-1.57676,0.987641,0.5,1.8,0,11899,49.312,33.007,16276.4
5290657826,0.634767,2.223,105.741,-0.0619471,-0.0180265,0.868892,-0.357245,-5.87928,0.0795745,-0.645131,-0.816373,1.35232,0.5,1.8,0,11899,49.312,33.007,16276.4
5290758173,0.634767,2.223,105.759,0.143025,-0.189071,0.851294,-0.37485,-5.6547,0.181307,1.72352,1.73689,1.21137,0.5,1.8,0,11899,49.312,33.007,16276.4
5290858493,0.634767,2.223,105.771,0.240211,-0.2653,0.830224,-0.428072,-5.22813,0.138121,2.87519,3.13355,0.508701,0.5,1.8,0,11899,49.312,33.007,16276.4
5290958863,0.634767,2.223,105.77,0.291511,-0.300915,0.816814,-0.489391,-4.74532,0.0572527,3.13036,3.45051,1.48188,0.5,1.8,0,11899,49.312,33.007,16276.4
5291059166,0.634767,2.223,105.759,0.324364,-0.315141,0.810191,-0.557435,-4.20082,0.00474679,3.40123,3.73439,1.97026,0.5,1.8,0,11899,49.312,33.007,16276.4
5291159628,0.634767,2.223,105.743,0.342291,-0.316921,0.809032,-0.637784,-3.63823,-0.0378884,3.34107,3.87793,2.22829,0.5,1.8,0,11899,49.312,33.007,16276.4
5291260106,0.634767,2.223,105.717,0.357466,-0.318522,0.80824,-0.719131,-3.05645,-0.0800797,3.3138,3.84377,2.66901,0.5,1.8,0,11899,49.312,33.007,16276.4
5291360465,0.634767,2.223,105.674,0.367423,-0.317279,0.809686,-0.812762,-2.45445,-0.119492,3.36692,4.08053,2.5812,0.5,1.8,0,11899,49.312,33.007,16276.4
5291460871,0.634767,2.223,105.63,0.365498,-0.319411,0.811191,-0.92113,-1.82771,-0.124017,3.37201,4.15474,3.00095,-2.5,2,0,11899,49.312,33.007,16276.4
5291561218,0.634767,2.223,105.599,0.355657,-0.287331,0.819926,-1.02149,-1.20511,-0.132836,3.4275,4.02386,2.8295,-2.5,2,0,11899,49.384,28.301,13976.2
5291662295,0.634767,2.223,105.581,0.345291,-0.0675753,0.852547,-1.15213,-0.583239,-0.0365128,3.01087,3.91617,3.39398,-2.5,2,0,11899,49.384,28.301,13976.2
5291766478,0.634767,2.223,105.585,0.296314,0.167982,0.886503,-1.48515,-0.251251,0.0272166,-0.179047,4.07162,1.32449,-2.5,2,0,11899,49.384,28.301,13976.2
5291866744,0.634767,2.223,105.598,0.212784,0.282155,0.89583,-1.88124,-0.177658,-0.0321473,-2.19965,3.17438,0.848652,-2.5,2,0,11899,49.384,28.301,13976.2
5291967021,0.634767,2.223,105.631,0.129025,0.306508,0.889439,-2.26908,-0.221172,-0.0488276,-2.77328,2.30968,1.32919,-2.5,2,0,11899,49.384,28.301,13976.2
5292067341,0.634767,2.223,105.66,0.0605274,0.271178,0.881248,-2.60582,-0.32017,-0.0132109,-2.76866,1.5411,1.17649,-2.5,2,0,11899,49.384,28.301,13976.2
5292167706,0.634767,2.223,105.688,0.0124028,0.214812,0.876024,-2.84144,-0.419171,0.0324417,-2.20105,0.899326,0.601442,-2.5,2,0,11899,49.384,28.301,13976.2
5292268088,0.634767,2.223,105.718,-0.0156168,0.168294,0.873482,-3.00488,-0.499981,0.0433858,-1.66135,0.496483,0.187666,-2.5,2,0,11899,49.384,28.301,13976.2
5292368444,0.634767,2.223,105.745,-0.0330917,0.130681,0.871736,-3.11899,-0.570233,0.0509874,-1.24655,0.212087,-0.176072,-2.5,2,0,11899,49.384,28.301,13976.2
5292468782,0.634767,2.223,105.76,-0.0412654,0.0992919,0.870562,-3.19215,-0.62871,0.043927,-0.78366,0.0809522,-0.0475291,4,4.3,0,11899,49.384,28.301,13976.2
5292569090,0.634766,2.223,105.763,-0.0365692,0.0570204,0.871457,-3.23303,-0.67129,0.0249294,-0.45954,0.016887,-0.206686,4,4.3,0,11860,49.39,26.504,13090.3
5292671553,0.634766,2.223,105.759,0.0245492,-0.141001,0.867321,-3.25492,-0.66269,0.0467453,0.732486,0.454462,0.2194,4,4.3,0,11860,49.39,26.504,13090.3
5292775096,0.634766,2.223,105.748,0.0727403,-0.302794,0.854415,-3.16133,-0.404742,-0.00864493,2.79116,1.08734,0.244288,4,4.3,0,11860,49.39,26.504,13090.3
5292875496,0.634766,2.223,105.729,0.103789,-0.388629,0.842034,-3.0154,-0.0515597,-0.0528217,3.66862,1.284,1.42755,4,4.3,0,11860,49.39,26.504,13090.3
5292975889,0.634766,2.223,105.697,0.121959,-0.421398,0.834864,-2.83064,0.380039,-0.0741297,4.06904,1.4185,2.19343,4,4.3,0,11860,49.39,26.504,13090.3
5293076316,0.634766,2.223,105.665,0.13107,-0.425033,0.832314,-2.63701,0.848471,-0.0669441,4.2607,1.53834,2.45783,4,4.3,0,11860,49.39,26.504,13090.3
5293176707,0.634766,2.223,105.636,0.136802,-0.418319,0.8323,-2.45265,1.31894,-0.0535214,4.3039,1.61945,2.27625,4,4.3,0,11860,49.39,26.504,13090.3
5293277099,0.634766,2.223,105.614,0.138503,-0.409968,0.833044,-2.27381,1.78725,-0.0396978,4.16769,1.61224,2.36613,4,4.3,0,11860,49.39,26.504,13090.3
5293378532,0.634766,2.223,105.605,0.136628,-0.399118,0.834496,-2.1128,2.241,-0.0210646,3.97521,1.66003,2.10913,4,4.3,0,11860,49.39,26.504,13090.3
5293478958,0.634766,2.223,105.602,0.134328,-0.38652,0.836315,-1.95556,2.69235,-0.00895414,3.76258,1.62858,2.28337,-3,-0.9,0,11860,49.39,26.504,13090.3
5293579322,0.634766,2.223,105.61,0.106373,-0.337354,0.844556,-1.8088,3.13371,0.0156974,3.74057,1.68096,2.05619,-3,-0.9,0,11860,49.533,25.504,12632.9
5293679677,0.634766,2.223,105.614,-0.040538,-0.0996739,0.873501,-1.67005,3.50386,0.114754,2.95526,1.18047,1.23079,-3,-0.9,0,11860,49.533,25.504,12632.9
5293780062,0.634766,2.223,105.623,-0.214919,0.167476,0.84984,-1.61412,3.47354,0.136111,-0.539424,-0.907683,-0.377688,-3,-0.9,0,11860,49.533,25.504,12632.9
5293881316,0.634766,2.223,105.64,-0.313945,0.297018,0.81744,-1.60216,3.14508,0.0490369,-2.60727,-2.18684,0.844162,-3,-0.9,0,11860,49.533,25.504,12632.9
5293986311,0.634766,2.223,105.663,-0.363503,0.360543,0.797735,-1.60363,2.6711,0.0210341,-3.45319,-2.6893,2.15308,-3,-0.9,0,11860,49.533,25.504,12632.9
5294086665,0.634766,2.223,105.694,-0.376328,0.380753,0.790821,-1.61631,2.11833,0.0115402,-3.87987,-3.01861,2.59365,-3,-0.9,0,11860,49.533,25.504,12632.9
5294187024,0.634766,2.223,105.731,-0.373222,0.38112,0.790837,-1.63661,1.56417,0.0188169,-3.91195,-2.98391,2.44912,-3,-0.9,0,11860,49.533,25.504,12632.9
5294287343,0.634766,2.223,105.758,-0.365156,0.372306,0.795059,-1.66047,1.01577,0.0126072,-3.80272,-2.88974,2.38646,-3,-0.9,0,11860,49.533,25.504,12632.9
5294387676,0.634766,2.223,105.772,-0.357625,0.35781,0.800425,-1.68124,0.478844,0.00950973,-3.63102,-2.78709,2.22471,-3,-0.9,0,11860,49.533,25.504,12632.9
5294488072,0.634766,2.223,105.779,-0.349358,0.33872,0.805806,-1.69427,-0.0314847,0.000366323,-3.29996,-2.64025,2.20776,-2.7,4.1,0,11860,49.533,25.504,12632.9
5294588430,0.634766,2.223,105.784,-0.330393,0.318827,0.810998,-1.70922,-0.515454,-0.00905938,-3.13407,-2.48033,1.96571,-2.7,4.1,0,11860,49.254,30.738,15139.7
5294690270,0.634766,2.223,105.782,-0.1429,0.27845,0.856474,-1.71444,-1.01705,0.0703631,-2.91009,-2.3797,2.86957,-2.7,4.1,0,11860,49.254,30.738,15139.7
5294795276,0.634766,2.223,105.792,0.181969,0.183868,0.899989,-1.90874,-1.29111,0.111705,-2.04634,0.785602,0.31956,-2.7,4.1,0,11860,49.254,30.738,15139.7
5294895640,0.634766,2.223,105.796,0.391743,0.108735,0.893969,-2.24358,-1.19573,0.064959,-1.03365,3.71671,0.098904,-2.7,4.1,0,11860,49.254,30.738,15139.7
5294995980,0.634766,2.223,105.797,0.450222,0.0783498,0.883808,-2.63658,-0.984447,-0.0818345,-0.552829,4.41923,1.52757,-2.7,4.1,0,11860,49.254,30.738,15139.7
5295096395,0.634766,2.223,105.789,0.467531,0.0589664,0.873768,-3.08788,-0.693437,-0.100411,-0.380256,5.00241,2.09006,-2.7,4.1,0,11860,49.254,30.738,15139.7
5295196746,0.634766,2.223,105.778,0.428835,0.0550354,0.870529,-3.52943,-0.391954,-0.12175,-0.308872,4.86812,2.23129,-2.7,4.1,0,11860,49.254,30.738,15139.7
5295297059,0.634766,2.223,105.761,0.353167,0.0543012,0.86894,-3.92826,-0.116011,-0.0982012,-0.245402,4.33252,1.8595,-2.7,4.1,0,11860,49.254,30.738,15139.7
5295397425,0.634766,2.223,105.735,0.272662,0.0552261,0.869234,-4.25155,0.0996774,-0.0885059,-0.303627,3.46251,1.27458,-2.7,4.1,0,11860,49.254,30.738,15139.7
5295497836,0.634765,2.223,105.712,0.192033,0.0532493,0.869597,-4.5049,0.262027,-0.0657908,-0.297174,2.6566,0.87145,3,-2.1,0,11860,49.254,30.738,15139.7
5295598229,0.634765,2.223,105.698,0.104984,0.0260668,0.866426,-4.69325,0.38273,-0.0396903,-0.334727,1.88474,0.762613,3,-2.1,0,11860,49.254,30.738,15139.7
5295698546,0.634765,2.223,105.683,-0.102482,-0.116759,0.874294,-4.77212,0.459457,0.00792206,0.429358,0.504789,0.135879,3,-2.1,0,11815,49.116,30.361,14912.1
5295798861,0.634765,2.223,105.674,-0.257988,-0.220023,0.898166,-4.5356,0.533559,-0.00913363,2.15793,-1.71386,0.285263,3,-2.1,0,11815,49.116,30.361,14912.1
5295899217,0.634765,2.223,105.663,-0.350291,-0.280338,0.918894,-4.15474,0.588246,-0.05286,2.72389,-2.65289,1.58705,3,-2.1,0,11815,49.116,30.361,14912.1
5295999543,0.634765,2.223,105.651,-0.387241,-0.302675,0.927538,-3.65025,0.637013,-0.0506454,3.14484,-3.27655,2.33848,3,-2.1,0,11815,49.116,30.361,14912.1
5296099841,0.634765,2.223,105.641,-0.39001,-0.306717,0.927881,-3.12071,0.682446,-0.0393242,3.31898,-3.4067,2.43798,3,-2.1,0,11815,49.116,30.361,14912.1
5296204298,0.634765,2.223,105.618,-0.381494,-0.30185,0.925425,-2.59209,0.721616,-0.0268107,3.11087,-3.23983,2.82132,3,-2.1,0,11815,49.116,30.361,14912.1
5296310471,0.634765,2.223,105.6,-0.370003,-0.296636,0.922422,-2.07895,0.762645,-0.00138965,3.13861,-3.19345,2.31169,3,-2.1,0,11815,49.116,30.361,14912.1
5296410823,0.634765,2.223,105.594,-0.357284,-0.287101,0.918372,-1.59088,0.800397,0.0145836,2.87007,-2.90491,2.31894,3,-2.1,0,11815,49.116,30.361,14912.1
5296511258,0.634765,2.223,105.595,-0.345247,-0.276854,0.914614,-1.03762,0.84754,0.0365205,2.74089,-2.72242,1.98737,0.5,2.8,0,11815,49.116,30.361,14912.1
5296611608,0.634765,2.223,105.604,-0.31532,-0.265323,0.907538,-0.597295,0.875477,0.0437592,2.54624,-2.67265,2.00041,0.5,2.8,0,11815,49.116,30.361,14912.1
5296712278,0.634765,2.223,105.612,-0.0928794,-0.189014,0.865764,-0.206982,0.924272,0.115188,2.29953,-1.91745,1.65194,0.5,2.8,0,11815,49.173,30.181,14840.9
5296815333,0.634765,2.223,105.636,0.224404,-0.0389452,0.858084,-0.188394,1.08247,0.171425,0.895564,1.47393,0.0460925,0.5,2.8,0,11815,49.173,30.181,14840.9
5296915651,0.634765,2.223,105.66,0.333567,0.0313649,0.872866,-0.443854,1.28519,0.0929088,-0.301735,3.54523,0.152293,0.5,2.8,0,11815,49.173,30.181,14840.9
5297015938,0.634765,2.223,105.679,0.344385,0.0593225,0.881614,-0.769816,1.48791,0.0349924,-0.653267,3.78843,1.09742,0.5,2.8,0,11815,49.173,30.181,14840.9
5297116318,0.634765,2.223,105.699,0.299408,0.0653886,0.883469,-1.10029,1.66267,0.0231583,-0.825005,3.53528,0.853151,0.5,2.8,0,11815,49.173,30.181,14840.9
5297216677,0.634765,2.223,105.732,0.23602,0.0574854,0.880976,-1.38409,1.81476,0.00557971,-0.725911,3.04306,0.521666,0.5,2.8,0,11815,49.173,30.181,14840.9
5297317031,0.634765,2.223,105.754,0.17437,0.0449581,0.877098,-1.61987,1.92811,0.00474247,-0.628967,2.43443,0.127189,0.5,2.8,0,11815,49.173,30.181,14840.9
5297417371,0.634765,2.223,105.752,0.122591,0.0289191,0.872831,-1.79658,2.01542,-0.0118142,-0.448235,1.76778,0.0439628,0.5,2.8,0,11815,49.173,30.181,14840.9
5297517803,0.634765,2.223,105.746,0.0837523,0.0131189,0.87017,-1.94029,2.07999,-0.0159437,-0.361875,1.32614,0.166213,1.8,3.7,0,11815,49.173,30.181,14840.9
5297618180,0.634765,2.223,105.739,0.0699468,-0.0340647,0.869061,-2.05796,2.12848,-0.0237425,-0.299278,0.90551,0.468759,1.8,3.7,0,11815,49.173,30.181,14840.9
5297718587,0.634765,2.223,105.723,0.108602,-0.135493,0.86194,-2.1285,2.24243,0.00308777,0.830585,1.21565,-0.0938051,1.8,3.7,0,11815,49.102,30.862,15153.9
5297818962,0.634765,2.223,105.7,0.132347,-0.201569,0.854846,-2.15846,2.45956,-0.0455282,1.62913,1.43522,0.410405,1.8,3.7,0,11815,49.102,30.862,15153.9
5297919307,0.634765,2.223,105.676,0.135155,-0.227104,0.852418,-2.17442,2.73845,-0.0413816,2.00068,1.62336,0.930718,1.8,3.7,0,11815,49.102,30.862,15153.9
5298019618,0.634765,2.223,105.654,0.116433,-0.216038,0.85505,-2.17331,3.01638,-0.0346184,2.0788,1.48146,0.926881,1.8,3.7,0,11815,49.102,30.862,15153.9
5298119918,0.634764,2.223,105.631,0.0871045,-0.188623,0.859305,-2.16539,3.26603,-0.0110406,1.8631,1.26747,0.764293,1.8,3.7,0,11815,49.102,30.862,15153.9
5298220310,0.634764,2.223,105.607,0.0602373,-0.15866,0.862521,-2.14534,3.45834,-0.00310148,1.54961,0.899107,0.569112,1.8,3.7,0,11815,49.102,30.862,15153.9
5298320670,0.634764,2.223,105.588,0.0367898,-0.132937,0.864833,-2.13137,3.60482,0.0182972,1.17988,0.705664,0.562512,1.8,3.7,0,11815,49.102,30.862,15153.9
5298421008,0.634764,2.223,105.581,0.0198002,-0.110878,0.865959,-2.1107,3.7219,0.0306344,0.964293,0.476675,0.367356,1.8,3.7,0,11815,49.102,30.862,15153.9
5298521389,0.634764,2.223,105.584,0.00940112,-0.0930323,0.866246,-2.09771,3.79803,0.03731,0.654219,0.374328,0.184186,3.4,3.2,0,11815,49.102,30.862,15153.9
5298621723,0.634764,2.223,105.583,-0.00329968,-0.0937212,0.865132,-2.0774,3.86287,0.0506671,0.589776,0.206455,0.298216,3.4,3.2,0,11815,49.102,30.862,15153.9
5298722028,0.634764,2.223,105.592,-0.0418856,-0.185135,0.869926,-2.05901,3.91133,0.0765266,0.775591,0.0085433,-0.365628,3.4,3.2,0,11815,49.066,32.11,15755.1
5298822379,0.634764,2.223,105.608,-0.0735334,-0.260653,0.875753,-1.91522,4.02381,0.0224462,1.87873,-0.44901,0.116177,3.4,3.2,0,11815,49.066,32.11,15755.1
5298922734,0.634764,2.223,105.618,-0.0903249,-0.29682,0.879317,-1.69902,4.17932,0.0222027,2.56185,-0.665777,0.86376,3.4,3.2,0,11815,49.066,32.11,15755.1
5299023054,0.634764,2.223,105.627,-0.0916856,-0.29061,0.878178,-1.46454,4.34051,0.0314746,2.63102,-0.751332,0.780537,3.4,3.2,0,11815,49.066,32.11,15755.1
5299123410,0.634764,2.223,105.63,-0.0852318,-0.26645,0.876107,-1.25217,4.47547,0.0403948,2.31157,-0.693502,0.658264,3.4,3.2,0,11815,49.066,32.11,15755.1
5299223810,0.634764,2.223,105.627,-0.0761051,-0.232494,0.873699,-1.057,4.59319,0.0520239,2.07299,-0.67228,0.646533,3.4,3.2,0,11815,49.066,32.11,15755.1
5299324199,0.634764,2.223,105.63,-0.0635196,-0.197277,0.870994,-0.888203,4.69472,0.0637181,1.77264,-0.525871,0.369499,3.4,3.2,0,11815,49.066,32.11,15755.1
5299424555,0.634764,2.223,105.638,-0.0537461,-0.166618,0.869676,-0.758064,4.76871,0.0716489,1.31247,-0.498535,0.269846,3.4,3.2,0,11815,49.066,32.11,15755.1
5299524953,0.634764,2.223,105.647,-0.0438488,-0.141255,0.868664,-0.675285,4.83088,0.0713517,0.942547,-0.208185,0.1018,-1.3,-1,0,11815,49.066,32.11,15755.1
5299625312,0.634764,2.223,105.648,-0.047103,-0.107449,0.866062,-0.604201,4.8681,0.0618965,0.745816,-0.194948,0.141809,-1.3,-1,0,11815,49.066,32.11,15755.1
5299725649,0.634764,2.223,105.651,-0.143655,0.0694784,0.861358,-0.539224,4.88361,0.162743,0.187324,-0.44673,0.634697,-1.3,-1,0,11815,49.297,26.588,13107.1
5299826011,0.634764,2.223,105.659,-0.245992,0.203331,0.8413,-0.549783,4.6329,0.122174,-2.16257,-1.8526,-0.54635,-1.3,-1,0,11815,49.297,26.588,13107.1
5299926352,0.634764,2.223,105.673,-0.310303,0.268918,0.824264,-0.541986,4.23315,0.0537228,-2.85779,-2.48048,1.48923,-1.3,-1,0,11815,49.297,26.588,13107.1
5300026649,0.634764,2.223,105.684,-0.340283,0.29894,0.814766,-0.536445,3.74081,0.0219019,-3.46712,-2.96087,1.62351,-1.3,-1,0,11815,49.297,26.588,13107.1
5300128538,0.634764,2.223,105.695,-0.350202,0.317402,0.807577,-0.5301,3.23547,-0.0162099,-3.47428,-2.98778,1.92919,-1.3,-1,0,11815,49.297,26.588,13107.1
5300232724,0.634764,2.223,105.716,-0.353149,0.3295,0.802852,-0.539191,2.6057,-0.0433684,-3.65762,-3.01408,1.90231,-1.3,-1,0,11815,49.297,26.588,13107.1
5300333085,0.634764,2.223,105.697,-0.351505,0.333299,0.800893,-0.557024,2.05989,-0.0539444,-3.66258,-2.84789,2.49022,-1.3,-1,0,11815,49.297,26.588,13107.1
5300433392,0.634764,2.223,105.683,-0.3514,0.32095,0.803425,-0.578152,1.51015,-0.0600542,-3.65863,-2.90615,2.33641,-1.3,-1,0,11815,49.297,26.588,13107.1
5300533799,0.634764,2.223,105.676,-0.351639,0.295693,0.808207,-0.575286,0.981916,-0.055444,-3.35466,-2.9873,2.03296,2.4,-1.5,0,11815,49.297,26.588,13107.1
5300634165,0.634764,2.223,105.672,-0.349217,0.251399,0.817057,-0.562948,0.484396,-0.0612475,-3.21047,-2.82941,1.85785,2.4,-1.5,0,11815,49.297,26.588,13107.1
5300734510,0.634764,2.223,105.677,-0.320299,0.0477374,0.843886,-0.492465,0.00274634,0.024954,-2.38851,-3.12891,1.49575,2.4,-1.5,0,11771,49.315,27.335,13480.3
5300834857,0.634764,2.223,105.687,-0.265683,-0.180061,0.876521,-0.281073,-0.158398,-0.00219165,0.679243,-2.40525,0.651247,2.4,-1.5,0,11771,49.315,27.335,13480.3
5300935222,0.634764,2.223,105.687,-0.231577,-0.314404,0.899326,0.00882548,-0.129322,-0.0622056,2.50949,-1.87923,0.567163,2.4,-1.5,0,11771,49.315,27.335,13480.3
5301035549,0.634764,2.223,105.67,-0.219299,-0.38381,0.911569,0.37626,-0.000581145,-0.0806222,3.30885,-1.69298,1.79793,2.4,-1.5,0,11771,49.315,27.335,13480.3
5301135843,0.634764,2.223,105.643,-0.214788,-0.411819,0.919041,0.775576,0.182304,-0.0748252,3.64646,-1.51614,2.31035,2.4,-1.5,0,11771,49.315,27.335,13480.3
5301236236,0.634764,2.223,105.62,-0.214142,-0.404216,0.919077,1.18774,0.394208,-0.0556517,3.8924,-1.48925,2.23507,2.4,-1.5,0,11771,49.315,27.335,13480.3
5301336546,0.634764,2.223,105.601,-0.194897,-0.355549,0.90999,1.5772,0.593014,-0.0206601,3.43065,-1.35851,2.42021,2.4,-1.5,0,11771,49.315,27.335,13480.3
5301436887,0.634764,2.223,105.588,-0.172605,-0.292531,0.898158,1.90674,0.749139,0.01887,2.99199,-1.33167,1.26703,2.4,-1.5,0,11771,49.315,27.335,13480.3
5301537283,0.634764,2.223,105.586,-0.152434,-0.233659,0.887837,2.16348,0.861742,0.0313765,2.15301,-1.13174,1.23328,-4.9,-0.6,0,11771,49.315,27.335,13480.3
5301637625,0.634764,2.223,105.59,-0.121275,-0.147278,0.880989,2.37813,0.934307,0.0820974,1.63856,-0.980993,1.31202,-4.9,-0.6,0,11771,49.315,27.335,13480.3
5301738014,0.634764,2.223,105.617,-0.0439621,0.109142,0.87439,2.46834,0.957046,0.192296,0.126296,-0.348331,0.902972,-4.9,-0.6,0,11771,49.342,26.791,13219.2
5301838366,0.634764,2.223,105.645,0.00134456,0.287676,0.873005,2.28397,0.79982,0.170848,-2.87434,0.313904,-0.464048,-4.9,-0.6,0,11771,49.342,26.791,13219.2
5301938746,0.634764,2.223,105.653,0.0249231,0.383612,0.873956,2.00398,0.582407,0.0832313,-3.63702,0.657041,0.977139,-4.9,-0.6,0,11771,49.342,26.791,13219.2
5302039106,0.634764,2.223,105.67,0.0380148,0.428866,0.874169,1.65064,0.307448,0.0469927,-4.24792,0.775488,1.61484,-4.9,-0.6,0,11771,49.342,26.791,13219.2
5302139470,0.634764,2.223,105.699,0.0403295,0.448493,0.873327,1.27326,0.0190337,0.0127901,-4.55376,0.833878,1.58256,-4.9,-0.6,0,11771,49.342,26.791,13219.2
5302239826,0.634764,2.223,105.722,0.039068,0.456995,0.870913,0.885406,-0.276311,-0.000797167,-4.44877,0.825776,1.89467,-4.9,-0.6,0,11771,49.342,26.791,13219.2
5302340225,0.634764,2.223,105.717,0.0322277,0.455143,0.868062,0.485801,-0.574128,-0.0130858,-4.44379,0.8492,1.91344,-4.9,-0.6,0,11771,49.342,26.791,13219.2
5302440572,0.634764,2.223,105.713,0.0224879,0.44417,0.865134,0.0979772,-0.877659,-0.0249498,-4.28525,0.762314,1.9077,-4.9,-0.6,0,11771,49.342,26.791,13219.2
5302541011,0.634764,2.223,105.712,0.0117542,0.426781,0.861787,-0.289846,-1.17104,-0.0268288,-4.20697,0.798507,1.82619,1.5,-3.5,0,11771,49.342,26.791,13219.2
5302641332,0.634764,2.223,105.707,-0.0164595,0.361977,0.851574,-0.658172,-1.4721,-0.0308366,-4.09997,0.633205,1.85117,1.5,-3.5,0,11771,49.342,26.791,13219.2
5302741662,0.634764,2.223,105.696,-0.101849,0.0810055,0.843028,-0.954253,-1.7336,0.0132248,-2.99043,0.213098,1.25989,1.5,-3.5,0,11771,49.342,26.791,13219.2
5302842031,0.634764,2.223,105.685,-0.193175,-0.184956,0.875244,-0.909269,-1.77801,0.0384754,0.674609,-0.998889,-0.312893,1.5,-3.5,0,11771,49.342,26.791,13219.2
5302942377,0.634764,2.223,105.666,-0.266101,-0.32164,0.911942,-0.649491,-1.68148,-0.0476641,2.63053,-1.4467,1.18092,1.5,-3.5,0,11771,49.342,26.791,13219.2
5303042670,0.634764,2.223,105.638,-0.303519,-0.373799,0.934488,-0.243735,-1.53758,-0.0541295,3.45226,-1.89074,2.54268,1.5,-3.5,0,11771,49.342,26.791,13219.2
5303143032,0.634764,2.223,105.607,-0.318754,-0.377303,0.94151,0.20511,-1.3705,-0.0478873,3.77309,-2.09673,2.55602,1.5,-3.5,0,11771,49.342,26.791,13219.2
5303243404,0.634764,2.223,105.578,-0.324647,-0.35996,0.940959,0.661069,-1.21831,-0.0331167,3.59736,-2.15895,2.67041,1.5,-3.5,0,11771,49.342,26.791,13219.2
5303343753,0.634764,2.223,105.554,-0.326171,-0.334961,0.936541,1.101,-1.089,-0.0264843,3.31597,-2.17347,2.44989,1.5,-3.5,0,11771,49.372,24.376,12034.9
5303444110,0.634764,2.223,105.543,-0.328285,-0.305938,0.93008,1.52943,-0.976026,-0.0107592,3.14082,-2.14696,2.08066,1.5,-3.5,0,11771,49.372,24.376,12034.9
5303544524,0.634764,2.223,105.552,-0.331871,-0.27181,0.92162,1.93517,-0.902099,0.0133546,2.65939,-2.23179,1.95676,-3.4,0,0,11771,49.372,24.376,12034.9
5303644888,0.634764,2.223,105.567,-0.300227,-0.210003,0.906114,2.30956,-0.855341,0.0392779,2.30158,-2.21115,1.51294,-3.4,0,0,11771,49.372,24.376,12034.9
5303745308,0.634764,2.223,105.584,-0.140128,-0.00219596,0.877184,2.63958,-0.832418,0.125599,1.63387,-1.87676,1.71924,-3.4,0,0,11771,49.372,24.376,12034.9
5303845661,0.634764,2.223,105.622,0.0593251,0.211113,0.880083,2.60066,-0.89643,0.203847,-1.28123,0.313724,0.0444154,-3.4,0,0,11771,49.372,24.376,12034.9
5303945998,0.634764,2.223,105.66,0.167609,0.314835,0.894308,2.2945,-0.985507,0.169936,-2.83954,1.88443,0.595401,-3.4,0,0,11771,49.372,24.376,12034.9
5304046356,0.634765,2.223,105.695,0.213005,0.362404,0.902505,1.89015,-1.07238,0.120031,-3.4835,2.54542,1.20742,-3.4,0,0,11771,49.372,24.376,12034.9
5304146663,0.634765,2.223,105.73,0.230857,0.384461,0.905323,1.44161,-1.16792,0.0677976,-3.69788,2.8031,1.22905,-3.4,0,0,11771,49.372,24.376,12034.9
5304247115,0.634765,2.223,105.751,0.235193,0.404484,0.906115,0.969301,-1.26216,0.0104333,-3.71176,2.87069,1.60636,-3.4,0,0,11771,49.372,24.376,12034.9
5304347402,0.634765,2.223,105.742,0.229242,0.41944,0.904985,0.477475,-1.38995,-0.0120113,-3.83925,2.6248,2.08577,-3.4,0,0,11771,49.17,29.493,14501.7
5304447772,0.634765,2.223,105.735,0.212455,0.425794,0.901967,-0.0314164,-1.53517,-0.0377257,-4.12783,2.7094,1.63791,-3.4,0,0,11771,49.17,29.493,14501.7
5304548249,0.634765,2.223,105.725,0.176842,0.388802,0.890937,-0.533495,-1.70113,-0.0628711,-4.03138,2.41225,1.87857,-3.4,-3.4,0,11771,49.17,29.493,14501.7
5304648562,0.634765,2.223,105.717,0.120656,0.316998,0.876615,-0.974359,-1.83477,-0.052687,-3.33986,2.14266,1.63825,-3.4,-3.4,0,11771,49.17,29.493,14501.7
5304748827,0.634765,2.223,105.708,-0.0467924,0.203654,0.84358,-1.3316,-1.94359,0.0472075,-2.57236,1.62431,1.1795,-3.4,-3.4,0,11771,49.17,29.493,14501.7
5304849111,0.634764,2.223,105.701,-0.234517,0.114869,0.840022,-1.43094,-2.06085,-0.00922371,-1.32833,-0.598614,-0.55372,-3.4,-3.4,0,11771,49.17,29.493,14501.7
5304949476,0.634764,2.223,105.689,-0.353855,0.0795878,0.850775,-1.33719,-2.2491,-0.0728344,-0.584194,-2.17265,0.403052,-3.4,-3.4,0,11771,49.17,29.493,14501.7
5305049801,0.634764,2.223,105.674,-0.413568,0.0739748,0.856983,-1.13818,-2.50672,-0.0758369,-0.35782,-2.93596,1.6757,-3.4,-3.4,0,11771,49.17,29.493,14501.7
5305150156,0.634764,2.223,105.661,-0.430825,0.079826,0.858288,-0.894215,-2.79288,-0.064456,-0.366383,-3.29549,1.97406,-3.4,-3.4,0,11771,49.17,29.493,14501.7
5305250535,0.634764,2.223,105.648,-0.436273,0.0921012,0.855928,-0.649076,-3.10661,-0.0327483,-0.586011,-3.39345,1.99957,-3.4,-3.4,0,11771,49.17,29.493,14501.7
5305350914,0.634764,2.223,105.628,-0.414783,0.0949332,0.856412,-0.362673,-3.48184,-0.025527,-0.664328,-3.37739,1.65611,-3.4,-3.4,0,11771,49.17,28.491,14009
5305451280,0.634764,2.223,105.615,-0.365036,0.0932431,0.858206,-0.150855,-3.76108,-0.0218758,-0.630522,-2.9015,1.6108,-3.4,-3.4,0,11771,49.17,28.491,14009
5305551677,0.634764,2.223,105.616,-0.311883,0.0886624,0.859866,0.0197688,-4.00937,0.0156264,-0.700277,-2.33246,1.45232,-2.5,2.1,0,11771,49.17,28.491,14009
5305652070,0.634764,2.223,105.623,-0.244578,0.0778911,0.860953,0.154401,-4.20052,0.0429453,-0.519869,-1.81312,1.13492,-2.5,2.1,0,11771,49.17,28.491,14009
5305752450,0.634764,2.223,105.632,0.0134284,0.0250069,0.870876,0.220449,-4.3171,0.130824,-0.314208,-0.673359,0.980682,-2.5,2.1,0,11771,49.17,28.491,14009
5305852795,0.634764,2.223,105.657,0.262902,-0.0239432,0.865527,0.0695729,-4.14272,0.188137,0.438061,2.74583,0.350593,-2.5,2.1,0,11771,49.17,28.491,14009
5305953149,0.634764,2.223,105.686,0.386444,-0.0378771,0.857157,-0.180185,-3.82624,0.101388,0.741295,4.1892,0.902989,-2.5,2.1,0,11771,49.17,28.491,14009
5306053491,0.634764,2.223,105.699,0.449181,-0.0330797,0.856454,-0.509177,-3.44728,0.0694296,0.678809,4.85379,1.80096,-2.5,2.1,0,11771,49.17,28.491,14009
5306153823,0.634764,2.223,105.692,0.477038,-0.0217341,0.859611,-0.87316,-3.05678,0.00556826,0.490517,5.2186,1.63976,-2.5,2.1,0,11771,49.17,28.491,14009
5306254190,0.634764,2.223,105.668,0.491365,-0.0126157,0.861062,-1.25825,-2.66495,-0.0612489,0.372788,4.92261,2.58101,-2.5,2.1,0,11771,49.17,28.491,14009
5306354519,0.634764,2.223,105.631,0.494723,-0.00630141,0.862481,-1.67897,-2.24273,-0.0937449,0.283745,5.279,2.66596,-2.5,2.1,0,11771,49.302,26.679,13153.3
5306454873,0.634764,2.223,105.602,0.447539,-0.00974764,0.858664,-2.11087,-1.82748,-0.107472,0.20446,5.16008,2.79621,-2.5,2.1,0,11771,49.302,26.679,13153.3
5306555326,0.634764,2.223,105.569,0.356138,-0.0189798,0.854938,-2.48962,-1.43147,-0.0837733,0.415253,4.68319,2.02453,0,0,0,11771,49.302,26.679,13153.3
5306655609,0.634764,2.223,105.55,0.23101,-0.0540044,0.84987,-2.78081,-1.11955,-0.0501038,0.267674,3.58409,1.73914,0,0,0,11771,49.302,26.679,13153.3
5306755927,0.634764,2.223,105.552,0.0113922,-0.201823,0.861173,-2.92321,-0.840327,0.074682,1.24608,2.20278,0.773641,0,0,0,11771,49.302,26.679,13153.3
5306856260,0.634764,2.223,105.566,-0.182789,-0.302,0.893948,-2.74852,-0.626479,0.0475499,2.78943,-0.37553,0.184425,0,0,0,11771,49.302,26.679,13153.3
5306956592,0.634764,2.223,105.578,-0.289903,-0.349705,0.916877,-2.38039,-0.454058,0.0194884,3.28285,-1.76754,1.80154,0,0,0,11771,49.302,26.679,13153.3
5307056908,0.634764,2.223,105.589,-0.323438,-0.34669,0.920177,-1.91628,-0.304765,0.028005,3.63698,-2.43125,2.26454,0,0,0,11771,49.302,26.679,13153.3
5307158083,0.634764,2.223,105.601,-0.296338,-0.300951,0.907924,-1.44698,-0.177016,0.0613127,3.35299,-2.40558,2.15674,0,0,0,11771,49.302,26.679,13153.3
5307259122,0.634764,2.223,105.61,-0.249457,-0.23959,0.892894,-1.05722,-0.0838125,0.0829039,2.88572,-2.19752,1.24469,0,0,0,11771,49.302,26.679,13153.3
5307359458,0.634764,2.223,105.613,-0.206221,-0.183087,0.882028,-0.759842,-0.0199698,0.0837759,2.13001,-1.69985,0.61143,0,0,0,11771,49.302,26.679,13153.3
5307459862,0.634764,2.223,105.619,-0.17121,-0.134598,0.875027,-0.530161,0.0271776,0.0706405,1.58523,-1.2696,0.341808,0,0,0,11771,49.174,28.288,13910.3
5307564587,0.634764,2.223,105.64,-0.140347,-0.0947288,0.870704,-0.353784,0.0542545,0.0630294,1.09569,-0.907037,0.189851,4,-1.1,0,11771,49.174,28.288,13910.3
5307664922,0.634764,2.223,105.646,-0.119191,-0.0753661,0.868155,-0.236807,0.0588577,0.0423336,0.628684,-0.667679,-0.128422,4,-1.1,0,11771,49.174,28.288,13910.3
5307765277,0.634764,2.223,105.642,-0.126388,-0.164986,0.870347,-0.149326,0.0549076,0.0444279,0.60095,-0.481523,-0.110248,4,-1.1,0,11771,49.174,28.288,13910.3
5307865653,0.634764,2.223,105.639,-0.14001,-0.271939,0.880593,0.0214149,0.127319,-0.0272818,1.76194,-0.605819,-0.296688,4,-1.1,0,11771,49.174,28.288,13910.3
5307965988,0.634764,2.223,105.64,-0.145079,-0.343882,0.888187,0.294833,0.289924,-0.0280374,2.79984,-0.664331,1.27767,4,-1.1,0,11771,49.174,28.288,13910.3
5308066357,0.634764,2.223,105.642,-0.147019,-0.379392,0.892106,0.597994,0.491947,-0.0223119,3.21297,-0.656945,1.32863,4,-1.1,0,11771,49.174,28.288,13910.3
5308166728,0.634764,2.223,105.631,-0.149545,-0.391529,0.894106,0.929708,0.723522,-0.0216042,3.42357,-0.637763,1.83364,4,-1.1,0,11771,49.174,28.288,13910.3
5308267087,0.634764,2.223,105.618,-0.149356,-0.391924,0.894154,1.25604,0.96079,0.00274245,3.4234,-0.515641,1.80985,4,-1.1,0,11771,49.174,28.288,13910.3
5308367431,0.634764,2.223,105.618,-0.150106,-0.389042,0.894051,1.58437,1.18761,0.0137391,3.43404,-0.669692,1.6363,4,-1.1,0,11771,49.174,28.288,13910.3
5308467775,0.634764,2.223,105.62,-0.152708,-0.385356,0.894526,1.90271,1.40577,0.0221511,3.33026,-0.692037,1.62718,4,-1.1,0,11771,49.188,27.923,13734.8
5308568191,0.634764,2.223,105.621,-0.14868,-0.364838,0.89155,2.20826,1.61603,0.0285621,3.32238,-0.665067,1.35267,4.2,-2.4,0,11771,49.188,27.923,13734.8
5308668538,0.634764,2.223,105.626,-0.142906,-0.322816,0.887827,2.48536,1.81072,0.0416791,2.86258,-0.554461,1.34651,4.2,-2.4,0,11771,49.188,27.923,13734.8
5308768879,0.634764,2.223,105.64,-0.210054,-0.281233,0.899724,2.71901,1.96994,0.069055,2.44354,-0.725433,0.730454,4.2,-2.4,0,11771,49.188,27.923,13734.8
5308869249,0.634764,2.223,105.648,-0.277624,-0.246572,0.900477,2.98213,2.02801,0.0406384,1.97821,-1.48375,0.739697,4.2,-2.4,0,11771,49.188,27.923,13734.8
5308969615,0.634764,2.223,105.662,-0.304527,-0.213555,0.893884,3.28198,2.01799,0.0329319,1.69082,-2.09314,0.951876,4.2,-2.4,0,11771,49.188,27.923,13734.8
5309069929,0.634764,2.223,105.672,-0.296856,-0.190775,0.887701,3.55525,1.96772,0.0302985,1.24787,-2.15248,0.780576,4.2,-2.4,0,11771,49.188,27.923,13734.8
5309170253,0.634765,2.223,105.681,-0.272479,-0.173968,0.882793,3.79702,1.90625,0.0298967,0.969553,-2.04507,0.656137,4.2,-2.4,0,11771,49.188,27.923,13734.8
5309270617,0.634765,2.223,105.695,-0.239235,-0.161867,0.879289,4.04675,1.83899,0.0280426,0.927056,-1.72434,0.460943,4.2,-2.4,0,11771,49.188,27.923,13734.8
5309370943,0.634765,2.223,105.712,-0.21006,-0.148869,0.875758,4.20683,1.80073,0.0361202,0.802909,-1.31126,0.107661,4.2,-2.4,0,11771,49.188,27.923,13734.8
5309471228,0.634765,2.223,105.725,-0.187326,-0.139725,0.874144,4.35108,1.76068,0.0326572,0.723318,-1.21432,0.125383,4.2,-2.4,0,11688,49.186,27.745,13646.7
5309571616,0.634765,2.223,105.733,-0.164469,-0.133099,0.872955,4.46465,1.72774,0.0406297,0.561595,-0.867874,0.368394,-0.3,1.6,0,11688,49.186,27.745,13646.7
5309671963,0.634765,2.223,105.748,-0.140604,-0.119561,0.872686,4.58176,1.72101,0.0236928,0.865862,-0.763767,0.131174,-0.3,1.6,0,11688,49.186,27.745,13646.7
5309772370,0.634765,2.223,105.756,0.00584137,0.0551571,0.866541,4.63738,1.69924,0.0941498,-0.0530251,-0.170318,0.835973,-0.3,1.6,0,11688,49.186,27.745,13646.7
5309872760,0.634765,2.223,105.769,0.170018,0.214697,0.885801,4.36237,1.61851,0.127781,-2.34549,1.84614,0.41693,-0.3,1.6,0,11688,49.186,27.745,13646.7
5309973115,0.634765,2.223,105.768,0.270673,0.284828,0.906516,3.94001,1.53764,0.0657425,-3.12143,2.82095,1.11287,-0.3,1.6,0,11688,49.186,27.745,13646.7
5310073438,0.634765,2.223,105.763,0.322159,0.314908,0.917668,3.41278,1.4841,0.0506159,-3.23428,3.38471,2.46748,-0.3,1.6,0,11688,49.186,27.745,13646.7
5310173804,0.634765,2.223,105.764,0.33905,0.324589,0.922661,2.87025,1.42687,0.00510546,-3.58075,3.6075,1.63804,-0.3,1.6,0,11688,49.186,27.745,13646.7
5310274134,0.634765,2.223,105.749,0.347472,0.331599,0.925963,2.31553,1.3795,-0.0332551,-3.39937,3.57152,2.25985,-0.3,1.6,0,11688,49.186,27.745,13646.7
5310374530,0.634765,2.223,105.713,0.351596,0.341117,0.930547,1.74939,1.32925,-0.0724802,-3.5057,3.62564,2.15904,-0.3,1.6,0,11688,49.186,27.745,13646.7
5310474895,0.634765,2.223,105.676,0.361751,0.350676,0.936397,1.16576,1.27531,-0.103471,-3.46883,3.65693,2.72404,-0.3,1.6,0,11688,49.078,31.754,15584.2
5310575290,0.634765,2.223,105.649,0.321924,0.331902,0.930509,0.553311,1.20437,-0.124851,-3.63468,3.58204,2.82159,3.3,4.3,0,11688,49.078,31.754,15584.2
5310675682,0.634765,2.223,105.621,0.254637,0.272523,0.918998,-0.00645208,1.12331,-0.0987349,-3.52363,3.18305,2.12812,3.3,4.3,0,11688,49.078,31.754,15584.2
5310776121,0.634765,2.223,105.6,0.224218,0.0728605,0.901458,-0.459905,1.04461,-0.036963,-2.75291,2.64318,1.17383,3.3,4.3,0,11688,49.078,31.754,15584.2
5310876473,0.634765,2.223,105.589,0.235287,-0.122326,0.871866,-0.707086,1.17609,-0.0371038,-0.00467592,2.60235,0.182971,3.3,4.3,0,11688,49.078,31.754,15584.2
5310976817,0.634765,2.223,105.588,0.248073,-0.252447,0.8419,-0.843164,1.4638,-0.0820403,1.65538,2.7171,0.712378,3.3,4.3,0,11688,49.078,31.754,15584.2
5311077109,0.634765,2.223,105.589,0.255805,-0.320594,0.823091,-0.902002,1.8706,-0.0520009,2.60248,2.59644,1.92254,3.3,4.3,0,11688,49.078,31.754,15584.2
5311177438,0.634765,2.223,105.592,0.257065,-0.349031,0.813573,-0.92296,2.32058,-0.016939,3.08228,2.61051,2.02863,3.3,4.3,0,11688,49.078,31.754,15584.2
5311277768,0.634765,2.223,105.595,0.252313,-0.3568,0.81047,-0.920223,2.78157,0.0131324,3.19517,2.59438,2.0227,3.3,4.3,0,11688,49.078,31.754,15584.2
5311378113,0.634765,2.223,105.59,0.24795,-0.353839,0.81065,-0.908157,3.23505,0.0270342,3.1207,2.47839,2.05889,3.3,4.3,0,11688,49.078,31.754,15584.2
5311478452,0.634765,2.223,105.583,0.23967,-0.339537,0.813826,-0.875374,3.68281,0.0361565,3.22158,2.40667,1.74682,3.3,4.3,0,11688,49.301,27.184,13402
5311578822,0.634765,2.223,105.591,0.210772,-0.298038,0.824214,-0.854529,4.10352,0.042737,2.82431,2.24605,1.63125,1.1,-1.3,0,11688,49.301,27.184,13402
5311679166,0.634765,2.223,105.598,0.146904,-0.24443,0.841202,-0.83242,4.45672,0.0747713,2.37596,1.9708,1.06611,1.1,-1.3,0,11688,49.301,27.184,13402
5311779506,0.634765,2.223,105.607,-0.0903238,-0.115598,0.873714,-0.783712,4.72977,0.146042,1.86884,1.00707,1.06453,1.1,-1.3,0,11688,49.301,27.184,13402
5311879793,0.634765,2.223,105.635,-0.319462,0.0154042,0.864882,-0.624555,4.66082,0.177784,0.0257071,-1.96611,0.185917,1.1,-1.3,0,11688,49.301,27.184,13402
5311980147,0.634765,2.223,105.659,-0.43589,0.0760712,0.852558,-0.393526,4.38585,0.0922758,-0.915383,-3.55874,0.913507,1.1,-1.3,0,11688,49.301,27.184,13402
5312080500,0.634765,2.223,105.688,-0.487165,0.113044,0.843206,-0.0994493,3.98588,0.0706388,-1.3596,-4.3493,2.13211,1.1,-1.3,0,11688,49.301,27.184,13402
5312180816,0.634765,2.223,105.734,-0.495909,0.134879,0.837187,0.181295,3.5422,0.0427908,-1.63154,-4.41934,2.14419,1.1,-1.3,0,11688,49.301,27.184,13402
5312281187,0.634765,2.223,105.762,-0.483966,0.146785,0.83187,0.440916,3.07219,0.0178749,-1.93912,-4.39239,1.9525,1.1,-1.3,0,11688,49.301,27.184,13402
5312381537,0.634765,2.223,105.751,-0.469466,0.149134,0.831192,0.686392,2.60622,-0.00337376,-1.90742,-4.09103,2.33073,1.1,-1.3,0,11688,49.301,27.184,13402
5312481893,0.634765,2.223,105.745,-0.453163,0.144067,0.834341,0.922124,2.14646,-0.0165381,-1.91644,-4.08885,1.89306,1.1,-1.3,0,11688,49.301,27.184,13402
5312582312,0.634765,2.223,105.753,-0.402266,0.120841,0.844361,1.14968,1.70265,-0.0176252,-1.74009,-3.83617,1.87719,2,4.6,0,11688,49.397,23.858,11785.1
5312682646,0.634765,2.223,105.751,-0.321187,0.0877192,0.854108,1.3397,1.33237,-0.0169645,-1.40522,-3.09548,1.42044,2,4.6,0,11688,49.397,23.858,11785.1
5312783052,0.634765,2.223,105.733,-0.0721055,0.0294949,0.87023,1.5064,1.04313,0.0297767,-0.916273,-2.31895,1.01692,2,4.6,0,11688,49.397,23.858,11785.1
5312885189,0.634765,2.223,105.727,0.229823,-0.0340591,0.86574,1.46225,1.0374,0.0422682,-0.101814,1.17464,-0.147874,2,4.6,0,11688,49.397,23.858,11785.1
5312991734,0.634765,2.223,105.726,0.38928,-0.0633487,0.854548,1.17925,1.32835,-0.0409209,0.450479,3.84827,1.03475,2,4.6,0,11688,49.397,23.858,11785.1
5313092117,0.634765,2.223,105.712,0.458698,-0.0718587,0.849116,0.849403,1.68535,-0.0796458,0.612298,4.6364,2.25867,2,4.6,0,11688,49.397,23.858,11785.1
5313192474,0.634765,2.223,105.693,0.474929,-0.0662193,0.850785,0.474171,2.08392,-0.0789384,0.535326,4.87902,2.72999,2,4.6,0,11688,49.397,23.858,11785.1
5313292782,0.634765,2.223,105.681,0.466705,-0.0543922,0.855485,0.0772788,2.48094,-0.0618267,0.382525,4.90197,2.6575,2,4.6,0,11688,49.397,23.858,11785.1
5313393140,0.634765,2.223,105.67,0.448758,-0.0473088,0.858272,-0.318495,2.84623,-0.0402259,0.199335,4.73234,2.4592,2,4.6,0,11688,49.397,23.858,11785.1
5313493479,0.634765,2.223,105.665,0.434027,-0.0527437,0.857581,-0.708686,3.20049,-0.0276338,0.128469,4.68909,2.21211,2,4.6,0,11688,49.397,23.858,11785.1
5313593893,0.634765,2.223,105.663,0.383914,-0.0584048,0.857225,-1.07001,3.54391,-0.00197545,0.190542,4.20112,2.16095,4,2.1,0,11644,48.989,32.712,16025.3
5313694268,0.634765,2.223,105.662,0.297788,-0.0736023,0.855544,-1.37584,3.84093,0.0197074,0.13384,3.52241,1.83225,4,2.1,0,11644,48.989,32.712,16025.3
5313795699,0.634765,2.223,105.663,0.0802114,-0.166503,0.868025,-1.56715,4.1051,0.161179,0.768412,2.44183,0.395962,4,2.1,0,11644,48.989,32.712,16025.3
5313899303,0.634765,2.223,105.679,-0.16021,-0.274871,0.895209,-1.48723,4.22936,0.0555272,1.96269,-0.442356,-1.16097,4,2.1,0,11644,48.989,32.712,16025.3
5313999696,0.634765,2.223,105.689,-0.267188,-0.333515,0.913277,-1.19834,4.3286,-0.0393256,2.54944,-1.90871,1.1036,4,2.1,0,11644,48.989,32.712,16025.3
5314100120,0.634765,2.223,105.688,-0.296058,-0.340656,0.914753,-0.771615,4.42702,-0.0420721,3.06321,-2.64259,1.99178,4,2.1,0,11644,48.989,32.712,16025.3
5314200489,0.634765,2.223,105.692,-0.268342,-0.308243,0.902234,-0.343587,4.50387,-0.0168554,2.83124,-2.66229,1.76617,4,2.1,0,11644,48.989,32.712,16025.3
5314300835,0.634765,2.223,105.682,-0.220958,-0.26405,0.889273,0.018217,4.55118,-0.0148353,2.39733,-2.38087,1.18067,4,2.1,0,11644,48.989,32.712,16025.3
5314401185,0.634765,2.223,105.65,-0.168917,-0.219188,0.880052,0.314094,4.59494,-0.00788479,1.90865,-1.80717,1.16892,4,2.1,0,11644,48.989,32.712,16025.3
5314501497,0.634765,2.223,105.623,-0.127673,-0.180698,0.875331,0.532008,4.63814,-3.69065e-05,1.47554,-1.26911,0.616244,4,2.1,0,11644,48.989,32.712,16025.3
5314601930,0.634765,2.223,105.638,-0.0990369,-0.151072,0.87247,0.696879,4.67388,0.0107638,1.06359,-0.869985,0.472147,-0.7,-0.7,0,11644,49.096,27.848,13672.3
5314702296,0.634765,2.223,105.652,-0.0820752,-0.113003,0.868051,0.836571,4.6999,0.0320324,0.88142,-0.771478,0.238648,-0.7,-0.7,0,11644,49.096,27.848,13672.3
5314802665,0.634765,2.223,105.647,-0.140788,0.074497,0.862357,0.966518,4.70306,0.117745,0.378422,-0.837869,0.811179,-0.7,-0.7,0,11644,49.096,27.848,13672.3
5314902968,0.634765,2.223,105.661,-0.206982,0.222728,0.847014,0.970694,4.47147,0.0845571,-2.04226,-1.50043,-0.248493,-0.7,-0.7,0,11644,49.096,27.848,13672.3
5315003326,0.634765,2.223,105.688,-0.249062,0.307358,0.832168,0.937615,4.10041,0.0267206,-3.15624,-1.93413,1.01234,-0.7,-0.7,0,11644,49.096,27.848,13672.3
5315103642,0.634765,2.223,105.713,-0.271309,0.355309,0.821365,0.888301,3.63644,0.0271002,-3.61831,-2.20841,1.77441,-0.7,-0.7,0,11644,49.096,27.848,13672.3
5315203986,0.634765,2.223,105.739,-0.278356,0.380228,0.815302,0.81798,3.14165,0.00225306,-4.05197,-2.37104,1.63136,-0.7,-0.7,0,11644,49.096,27.848,13672.3
5315304451,0.634765,2.223,105.754,-0.275164,0.387034,0.812973,0.727076,2.62914,-0.0265961,-4.07798,-2.29085,2.00101,-0.7,-0.7,0,11644,49.096,27.848,13672.3
5315404801,0.634765,2.223,105.743,-0.271585,0.383609,0.813797,0.619303,2.09978,-0.0330631,-4.1721,-2.11745,2.31641,-0.7,-0.7,0,11644,49.096,27.848,13672.3
5315505130,0.634765,2.223,105.729,-0.271559,0.373775,0.815193,0.507411,1.58683,-0.0435379,-4.03553,-2.08074,2.03604,-0.7,-0.7,0,11644,49.096,27.848,13672.3
5315605532,0.634765,2.223,105.724,-0.267647,0.343473,0.821608,0.405728,1.07952,-0.0607926,-3.87185,-2.07353,2.12186,-2.4,-3.4,0,11644,49.062,29.623,14533.6
5315705907,0.634765,2.223,105.718,-0.246468,0.283624,0.834847,0.319251,0.609757,-0.0407851,-3.46458,-1.9349,1.8776,-2.4,-3.4,0,11644,49.062,29.623,14533.6
5315806247,0.634765,2.223,105.707,-0.27532,0.244455,0.835518,0.273888,0.22744,-0.00535716,-2.72854,-1.9157,1.08557,-2.4,-3.4,0,11644,49.062,29.623,14533.6
5315906605,0.634765,2.223,105.698,-0.307338,0.221147,0.836797,0.284331,-0.13693,-0.0440125,-2.29799,-2.17831,1.15597,-2.4,-3.4,0,11644,49.062,29.623,14533.6
5316006964,0.634765,2.223,105.694,-0.326793,0.208424,0.838112,0.33506,-0.509248,-0.0334516,-2.04172,-2.4078,1.51636,-2.4,-3.4,0,11644,49.062,29.623,14533.6
5316107303,0.634765,2.223,105.698,-0.334858,0.202099,0.838171,0.406979,-0.872938,-0.0354012,-1.9163,-2.54885,1.29136,-2.4,-3.4,0,11644,49.062,29.623,14533.6
5316207674,0.634765,2.223,105.692,-0.334593,0.19914,0.838896,0.488605,-1.23942,-0.0286476,-1.91408,-2.69902,1.13312,-2.4,-3.4,0,11644,49.062,29.623,14533.6
5316308051,0.634765,2.223,105.684,-0.331061,0.198443,0.83921,0.563105,-1.60644,-0.0193652,-1.96924,-2.51602,1.66084,-2.4,-3.4,0,11644,49.062,29.623,14533.6
5316408466,0.634765,2.223,105.673,-0.329654,0.194389,0.840339,0.643622,-1.95052,-0.0134825,-1.80424,-2.53384,1.37707,-2.4,-3.4,0,11644,49.062,29.623,14533.6
5316508822,0.634765,2.223,105.664,-0.326063,0.189347,0.841371,0.728179,-2.29371,-0.00804986,-1.78773,-2.54849,1.38831,-2.4,-3.4,0,11644,49.062,29.623,14533.6
5316609160,0.634765,2.223,105.655,-0.297375,0.170857,0.846523,0.808915,-2.6185,0.00586483,-1.69463,-2.30452,1.38292,2.7,-0.6,0,11644,49.081,28.691,14081.8
5316709521,0.634765,2.223,105.651,-0.25677,0.136666,0.854955,0.870059,-2.88763,0.0152238,-1.50297,-2.02685,0.754673,2.7,-0.6,0,11644,49.081,28.691,14081.8
5316809859,0.634765,2.223,105.653,-0.112013,-0.054371,0.866955,0.929447,-3.11827,0.0785386,-1.16268,-1.63695,0.961143,2.7,-0.6,0,11644,49.081,28.691,14081.8
5316910228,0.634765,2.223,105.66,0.0674162,-0.293482,0.852663,1.01143,-3.00436,0.110874,1.7476,0.414167,0.511029,2.7,-0.6,0,11644,49.081,28.691,14081.8
5317010592,0.634765,2.223,105.662,0.160208,-0.415132,0.833488,1.11346,-2.59744,0.0518249,3.81074,1.88656,0.7721,2.7,-0.6,0,11644,49.081,28.691,14081.8
5317110921,0.634765,2.223,105.656,0.20088,-0.466527,0.820927,1.22808,-2.07255,-0.0235797,4.23812,2.35437,2.39491,2.7,-0.6,0,11644,49.081,28.691,14081.8
5317211269,0.634765,2.223,105.634,0.21305,-0.474417,0.820605,1.38603,-1.33998,-0.0172964,4.53515,2.52368,3.2582,2.7,-0.6,0,11644,49.081,28.691,14081.8
5317311629,0.634765,2.223,105.615,0.198697,-0.455399,0.830107,1.49594,-0.745329,-0.0156648,4.26458,2.53669,2.86378,2.7,-0.6,0,11644,49.081,28.691,14081.8
5317411966,0.634766,2.223,105.604,0.168281,-0.430458,0.840562,1.601,-0.183878,-0.0034136,4.20312,2.48176,2.43533,2.7,-0.6,0,11644,49.081,28.691,14081.8
5317512316,0.634766,2.223,105.594,0.12081,-0.374016,0.853063,1.7098,0.313812,0.00798724,3.64274,1.95602,2.28872,2.7,-0.6,0,11644,49.081,28.691,14081.8
5317612705,0.634766,2.223,105.585,0.0675208,-0.305371,0.862307,1.80584,0.710485,0.0288105,2.97307,1.51894,1.28685,-4.1,-0.9,0,11644,49.214,27.912,13736.6
5317713024,0.634766,2.223,105.587,0.0210909,-0.220122,0.867512,1.89503,1.01692,0.0482013,2.43065,1.04517,1.06673,-4.1,-0.9,0,11644,49.214,27.912,13736.6
5317813384,0.634766,2.223,105.601,-0.0150811,0.0556319,0.866822,1.95393,1.20717,0.114602,0.971012,0.498906,0.541839,-4.1,-0.9,0,11644,49.214,27.912,13736.6
5317913804,0.634766,2.223,105.625,-0.0333545,0.281621,0.861271,1.78809,1.08329,0.082634,-2.59793,0.238152,-0.2804,-4.1,-0.9,0,11644,49.214,27.912,13736.6
5318014170,0.634766,2.223,105.646,-0.0403478,0.400137,0.857234,1.53608,0.844262,0.0178789,-3.65068,0.17473,1.10143,-4.1,-0.9,0,11644,49.214,27.912,13736.6
5318114495,0.634766,2.223,105.67,-0.0407639,0.447519,0.85501,1.22116,0.52333,0.00166797,-4.31345,0.166632,1.66808,-4.1,-0.9,0,11644,49.214,27.912,13736.6
5318214793,0.634766,2.223,105.72,-0.0393787,0.456291,0.853105,0.883497,0.187106,-0.0016598,-4.4353,0.266733,1.77582,-4.1,-0.9,0,11644,49.214,27.912,13736.6
5318315139,0.634766,2.223,105.755,-0.0409067,0.446886,0.851688,0.553658,-0.142917,-0.000609204,-4.38295,0.316816,1.54921,-4.1,-0.9,0,11644,49.214,27.912,13736.6
5318415498,0.634766,2.223,105.753,-0.0441401,0.433184,0.850855,0.231589,-0.462166,-0.00614223,-4.16629,0.334155,1.65434,-4.1,-0.9,0,11644,49.214,27.912,13736.6
5318515824,0.634766,2.223,105.749,-0.049162,0.418553,0.850986,-0.0790903,-0.792234,-0.00237668,-3.91103,0.232746,1.81256,-4.1,-0.9,0,11644,49.214,27.912,13736.6
5318616236,0.634766,2.223,105.758,-0.0614346,0.403899,0.850584,-0.368406,-1.11964,-0.00696601,-3.83545,0.0874901,1.4961,-4.1,4.2,0,11644,49.214,27.912,13736.6
5318716543,0.634766,2.223,105.762,-0.0492738,0.372149,0.854592,-0.630997,-1.45497,0.000818416,-3.68924,-0.155579,1.60736,-4.1,4.2,0,11644,49.04,30.203,14811.6
5318816885,0.634766,2.223,105.755,0.118927,0.269973,0.890112,-0.912487,-1.74949,0.100487,-3.19925,0.460495,1.46872,-4.1,4.2,0,11644,49.04,30.203,14811.6
5318917198,0.634766,2.223,105.758,0.270525,0.187648,0.90046,-1.2237,-1.77408,0.0456729,-1.92172,2.49521,-0.0658674,-4.1,4.2,0,11644,49.04,30.203,14811.6
5319017441,0.634766,2.223,105.762,0.352261,0.147238,0.893821,-1.58926,-1.67952,-0.0489132,-1.33574,3.50205,0.815749,-4.1,4.2,0,11644,49.04,30.203,14811.6
5319117680,0.634766,2.223,105.754,0.391035,0.133666,0.88853,-1.99726,-1.50129,-0.0850223,-1.0067,4.04583,1.5211,-4.1,4.2,0,11644,49.04,30.203,14811.6
5319217991,0.634766,2.223,105.737,0.399124,0.137899,0.885371,-2.43874,-1.30083,-0.0996265,-0.992926,4.14608,2.00688,-4.1,4.2,0,11644,49.04,30.203,14811.6
5319318365,0.634766,2.223,105.715,0.389091,0.151556,0.884605,-2.88389,-1.1035,-0.0999401,-1.1279,4.1297,2.06031,-4.1,4.2,0,11644,49.04,30.203,14811.6
5319418945,0.634765,2.223,105.685,0.374872,0.165049,0.88544,-3.32205,-0.917732,-0.0798257,-1.15313,3.96661,2.21114,-4.1,4.2,0,11644,49.04,30.203,14811.6
5319519387,0.634765,2.223,105.659,0.358698,0.177965,0.888383,-3.7455,-0.749886,-0.0654504,-1.24199,3.77568,1.97314,-4.1,4.2,0,11644,49.04,30.203,14811.6
5319619858,0.634765,2.223,105.651,0.323335,0.179333,0.886861,-4.16482,-0.602316,-0.0409396,-1.34644,3.52489,1.99177,0.7,-2.5,0,11644,49.04,30.203,14811.6
5319720321,0.634765,2.223,105.649,0.237578,0.139663,0.87373,-4.54241,-0.491516,-0.00745927,-1.48623,3.17332,1.49812,0.7,-2.5,0,11644,49.126,29.562,14522.6
5319820659,0.634765,2.223,105.653,-0.0139734,-0.0366731,0.861038,-4.80419,-0.40264,0.0669074,-0.668595,2.03653,0.772334,0.7,-2.5,0,11644,49.126,29.562,14522.6
5319921033,0.634765,2.223,105.668,-0.254524,-0.180386,0.889631,-4.652,-0.338421,0.0986559,1.61442,-1.25462,0.150025,0.7,-2.5,0,11644,49.126,29.562,14522.6
5320021381,0.634765,2.223,105.696,-0.382706,-0.245044,0.91671,-4.28497,-0.320621,0.0116353,2.44981,-2.83432,0.953654,0.7,-2.5,0,11644,49.126,29.562,14522.6
5320121756,0.634765,2.223,105.71,-0.446065,-0.27181,0.931518,-3.77238,-0.322212,-0.0326756,2.90313,-3.60807,2.29087,0.7,-2.5,0,11644,49.126,29.562,14522.6
5320222075,0.634765,2.223,105.71,-0.460108,-0.280682,0.936329,-3.18187,-0.35065,-0.0344055,3.13424,-4.08161,2.73385,0.7,-2.5,0,11644,49.126,29.562,14522.6
5320322383,0.634765,2.223,105.708,-0.446736,-0.279221,0.934471,-2.58435,-0.368068,-0.0379412,3.16717,-3.92949,2.89775,0.7,-2.5,0,11644,49.126,29.562,14522.6
5320422724,0.634765,2.223,105.691,-0.43248,-0.269333,0.93023,-1.99224,-0.379133,-0.0249177,3.08031,-3.80319,2.91882,0.7,-2.5,0,11644,49.126,29.562,14522.6
5320523039,0.634765,2.223,105.678,-0.421227,-0.254815,0.924547,-1.42756,-0.398941,-0.0204631,2.88471,-3.67707,2.57601,0.7,-2.5,0,11644,49.126,29.562,14522.6
5320623561,0.634765,2.223,105.681,-0.410404,-0.238723,0.91886,-0.885174,-0.427245,-0.0154344,2.70491,-3.53893,2.31957,2.5,-1.7,0,11644,49.126,29.562,14522.6
5320723925,0.634765,2.223,105.679,-0.392271,-0.229996,0.914805,-0.364935,-0.453527,-0.0182944,2.63594,-3.37016,2.25649,2.5,-1.7,0,11644,49.043,27.369,13422.6
5320826095,0.634765,2.223,105.673,-0.314227,-0.278199,0.903862,0.121398,-0.482859,0.00345839,2.43487,-2.95469,2.24903,2.5,-1.7,0,11644,49.043,27.369,13422.6
5320932314,0.634765,2.223,105.669,-0.2436,-0.330131,0.89996,0.556987,-0.407157,0.00955216,3.01403,-2.25177,1.30683,2.5,-1.7,0,11644,49.043,27.369,13422.6
5321032681,0.634765,2.223,105.661,-0.194483,-0.358679,0.898953,0.967017,-0.247776,-0.0264437,3.40423,-1.58622,1.51383,2.5,-1.7,0,11644,49.043,27.369,13422.6
5321133029,0.634765,2.223,105.65,-0.164621,-0.35919,0.897493,1.43146,0.00127906,-0.0162769,3.5991,-1.06976,1.60331,2.5,-1.7,0,11644,49.043,27.369,13422.6
5321233441,0.634765,2.223,105.64,-0.138272,-0.321691,0.893665,1.7769,0.214905,-0.00735975,3.31787,-0.813753,1.50178,2.5,-1.7,0,11644,49.043,27.369,13422.6
5321333940,0.634765,2.223,105.635,-0.120918,-0.274221,0.889347,2.05091,0.400589,0.0129011,2.81769,-0.615545,0.960542,2.5,-1.7,0,11644,49.043,27.369,13422.6
5321434284,0.634765,2.223,105.64,-0.108165,-0.221993,0.883732,2.27438,0.546782,0.0175006,2.23463,-0.558701,0.763081,2.5,-1.7,0,11644,49.043,27.369,13422.6
5321534640,0.634765,2.223,105.653,-0.097398,-0.174844,0.879096,2.44431,0.655837,0.0276971,1.66903,-0.409234,0.652481,2.5,-1.7,0,11644,49.043,27.369,13422.6
5321635064,0.634765,2.223,105.667,-0.0885014,-0.139396,0.875899,2.56997,0.737745,0.0475189,1.30683,-0.333717,0.190274,1.2,-2.6,0,11644,49.043,27.369,13422.6
5321735373,0.634765,2.223,105.684,-0.0932473,-0.0918289,0.871116,2.6631,0.797582,0.0378443,0.99639,-0.16835,0.379454,1.2,-2.6,0,11644,48.967,29.136,14267
5321835723,0.634765,2.223,105.701,-0.147359,0.0213942,0.8693,2.71677,0.784913,0.0775161,-0.0538157,-0.675199,-0.347158,1.2,-2.6,0,11644,48.967,29.136,14267
5321936094,0.634765,2.223,105.713,-0.201326,0.103262,0.85758,2.74272,0.634734,0.0320358,-1.06619,-1.29068,-0.0818559,1.2,-2.6,0,11644,48.967,29.136,14267
5322036445,0.634765,2.223,105.722,-0.227721,0.139304,0.849041,2.74771,0.402191,0.0150744,-1.65435,-1.57516,0.252813,1.2,-2.6,0,11644,48.967,29.136,14267
5322136789,0.634765,2.223,105.731,-0.224359,0.138723,0.847271,2.75815,0.153509,0.0137562,-1.70905,-1.60833,0.603459,1.2,-2.6,0,11644,48.967,29.136,14267
5322237095,0.634765,2.223,105.732,-0.204938,0.115702,0.850621,2.75942,-0.0829612,0.013333,-1.55246,-1.50071,0.400105,1.2,-2.6,0,11644,48.967,29.136,14267
5322337455,0.634765,2.223,105.729,-0.180574,0.084134,0.855534,2.76103,-0.273289,0.0063382,-1.17306,-1.17619,0.404976,1.2,-2.6,0,11644,48.967,29.136,14267
5322437834,0.634766,2.223,105.723,-0.160505,0.0549192,0.85997,2.77044,-0.423231,-0.00554818,-0.854253,-1.05361,0.027465,1.2,-2.6,0,11644,48.967,29.136,14267
5322538198,0.634766,2.223,105.715,-0.141665,0.0337556,0.862883,2.78232,-0.542479,-0.00969698,-0.655458,-0.864844,-0.0489664,1.2,-2.6,0,11644,48.967,29.136,14267
5322638579,0.634766,2.223,105.705,-0.119776,0.00962456,0.865953,2.79812,-0.635404,-0.0244132,-0.323643,-0.653556,0.152114,-1.8,1.9,0,11644,48.967,29.136,14267
5322738927,0.634766,2.223,105.691,-0.0770695,0.0182575,0.867745,2.81508,-0.688997,-0.00870238,0.00605865,-0.474423,0.689664,-1.8,1.9,0,11644,48.894,31.641,15470.6
5322839256,0.634766,2.223,105.687,0.114698,0.12707,0.878931,2.77104,-0.721345,0.0535872,-0.576879,0.470886,0.417818,-1.8,1.9,0,11644,48.894,31.641,15470.6
5322939581,0.634766,2.223,105.68,0.270053,0.197736,0.896936,2.4584,-0.718353,0.0199952,-1.83492,2.57336,0.459319,-1.8,1.9,0,11644,48.894,31.641,15470.6
5323039872,0.634766,2.223,105.677,0.36194,0.238482,0.911022,2.00259,-0.669499,-0.0152216,-2.2702,3.65834,1.61475,-1.8,1.9,0,11644,48.894,31.641,15470.6
5323140823,0.634766,2.223,105.69,0.402797,0.260422,0.919423,1.45643,-0.592222,-0.0305912,-2.50988,4.24943,2.12563,-1.8,1.9,0,11644,48.894,31.641,15470.6
5323242353,0.634766,2.223,105.696,0.411951,0.274824,0.923896,0.879495,-0.498074,-0.0558426,-2.52915,4.3659,2.57346,-1.8,1.9,0,11644,48.894,31.641,15470.6
5323342711,0.634766,2.223,105.69,0.403126,0.281902,0.924953,0.291635,-0.42011,-0.0554963,-2.69197,4.34187,2.60729,-1.8,1.9,0,11644,48.894,31.641,15470.6
5323443079,0.634766,2.223,105.689,0.38971,0.282004,0.923575,-0.296924,-0.363475,-0.0586561,-2.83452,4.20177,2.6269,-1.8,1.9,0,11644,48.894,31.641,15470.6
5323543370,0.634766,2.223,105.701,0.34077,0.252643,0.911278,-0.878715,-0.306459,-0.0316724,-2.72467,4.03692,2.57963,-1.8,1.9,0,11644,48.894,31.641,15470.6
5323643733,0.634766,2.223,105.713,0.263179,0.206143,0.895608,-1.37486,-0.253379,0.00401031,-2.37669,3.52356,1.65269,-2,-0.9,0,11644,48.894,31.641,15470.6
5323744073,0.634766,2.223,105.718,0.173227,0.162321,0.884405,-1.73894,-0.206962,0.0148439,-1.72145,2.67884,0.803455,-2,-0.9,0,11644,49.016,29.454,14437.2
5323844406,0.634766,2.223,105.722,-0.0516396,0.136355,0.860116,-2.00832,-0.19737,0.0861382,-1.42603,1.59195,0.559563,-2,-0.9,0,11644,49.016,29.454,14437.2
5323944721,0.634766,2.223,105.726,-0.280732,0.108943,0.849262,-2.02363,-0.324448,0.0429351,-0.997805,-1.38935,-0.421308,-2,-0.9,0,11644,49.016,29.454,14437.2
5324045056,0.634765,2.223,105.716,-0.400336,0.0964658,0.849417,-1.87045,-0.576209,-0.0244956,-0.845053,-3.13615,0.587327,-2,-0.9,0,11644,49.016,29.454,14437.2
5324145342,0.634765,2.223,105.706,-0.420681,0.0828298,0.854413,-1.62188,-0.902759,-0.0494444,-0.649463,-3.76316,1.88504,-2,-0.9,0,11644,49.016,29.454,14437.2
5324245754,0.634765,2.223,105.692,-0.378043,0.0729953,0.859051,-1.34357,-1.22708,-0.0373678,-0.51704,-3.77746,1.75508,-2,-0.9,0,11644,49.016,29.454,14437.2
5324346081,0.634765,2.223,105.666,-0.307717,0.0634892,0.862703,-1.10835,-1.49374,-0.0123195,-0.406265,-3.14406,1.42209,-2,-0.9,0,11644,49.016,29.454,14437.2
5324446446,0.634765,2.223,105.656,-0.240186,0.0567067,0.865084,-0.93632,-1.69414,-0.00851042,-0.365432,-2.37785,0.738284,-2,-0.9,0,11644,49.016,29.454,14437.2
5324546793,0.634765,2.223,105.663,-0.188716,0.0529457,0.866235,-0.804373,-1.85011,0.00712215,-0.325198,-1.76757,0.613899,-2,-0.9,0,11644,49.016,29.454,14437.2
5324647203,0.634765,2.223,105.67,-0.145163,0.0514481,0.867065,-0.704526,-1.96601,0.020798,-0.277356,-1.25138,0.274646,4.5,2.7,0,11644,49.016,29.454,14437.2
5324747565,0.634765,2.223,105.675,-0.105039,0.0365099,0.869939,-0.635088,-2.04421,0.0180134,-0.190498,-0.788771,0.113333,4.5,2.7,0,11644,49.016,29.454,14437.2
5324847927,0.634765,2.223,105.686,0.0182633,-0.127771,0.867621,-0.590418,-2.10725,0.0739536,-0.0428765,-0.339884,0.40999,4.5,2.7,0,11644,49.073,28.388,13930.8
5324948322,0.634765,2.223,105.703,0.128512,-0.273,0.849528,-0.514736,-1.88351,0.0615082,2.35787,1.25187,-0.205684,4.5,2.7,0,11644,49.073,28.388,13930.8
5325048688,0.634765,2.223,105.706,0.193689,-0.360796,0.831102,-0.430864,-1.51603,-0.00719113,3.19587,1.94084,1.09148,4.5,2.7,0,11644,49.073,28.388,13930.8
5325149042,0.634765,2.223,105.704,0.227809,-0.401616,0.820313,-0.340837,-1.03273,-0.0290188,3.84614,2.46729,1.92312,4.5,2.7,0,11644,49.073,28.388,13930.8
5325249405,0.634765,2.223,105.695,0.23727,-0.409415,0.818564,-0.250885,-0.492106,-0.0353768,3.99889,2.63175,2.45414,4.5,2.7,0,11644,49.073,28.388,13930.8
5325349747,0.634765,2.223,105.682,0.233752,-0.403342,0.82049,-0.16415,0.0524367,-0.0282709,3.95908,2.65436,2.4981,4.5,2.7,0,11644,49.073,28.388,13930.8
5325450114,0.634765,2.223,105.669,0.227075,-0.396009,0.822427,-0.0808708,0.567907,-0.0256393,3.80826,2.48357,2.2578,4.5,2.7,0,11644,49.073,28.388,13930.8
5325550461,0.634765,2.223,105.659,0.216774,-0.391006,0.823631,0.00278854,1.07791,-0.0307903,3.82604,2.4305,2.14207,4.5,2.7,0,11644,49.073,28.388,13930.8
5325650824,0.634765,2.223,105.65,0.205777,-0.384417,0.825393,0.113485,1.67735,-0.026036,3.67556,2.18577,2.12093,2.3,2.8,0,11644,49.073,28.388,13930.8
5325751162,0.634765,2.223,105.639,0.197835,-0.364624,0.830259,0.204803,2.15881,-0.0182893,3.70987,2.12629,1.809,2.3,2.8,0,11644,49.073,28.388,13930.8
5325851574,0.634765,2.223,105.633,0.214592,-0.250769,0.832161,0.256735,2.60621,0.0268699,2.80886,2.23249,1.9257,2.3,2.8,0,11644,49.073,28.388,13930.8
5325951912,0.634765,2.223,105.633,0.214735,-0.135768,0.843035,0.185706,2.93498,0.0483393,1.60633,2.43099,0.789816,2.3,2.8,0,11644,49.073,28.388,13930.8
5326052249,0.634765,2.223,105.638,0.192451,-0.0491691,0.857454,0.0503331,3.15333,0.040672,0.495093,2.24234,0.466224,2.3,2.8,0,11644,49.073,28.388,13930.8
5326152537,0.634765,2.223,105.65,0.159556,-0.00799903,0.865038,-0.101732,3.2914,0.0385754,-0.157779,1.90189,0.276427,2.3,2.8,0,11644,49.073,28.388,13930.8
5326252912,0.634765,2.223,105.667,0.124979,0.00632521,0.868589,-0.238109,3.39034,0.0451571,-0.294412,1.51956,0.127624,2.3,2.8,0,11644,49.073,28.388,13930.8
5326353257,0.634765,2.223,105.679,0.0955237,0.0072364,0.87015,-0.353586,3.44719,0.0352641,-0.413815,1.17031,-0.208452,2.3,2.8,0,11560,49.002,27.932,13687.2
5326453624,0.634765,2.223,105.689,0.0728751,0.00184392,0.87028,-0.444206,3.48434,0.0267361,-0.33016,0.853897,-0.155791,2.3,2.8,0,11560,49.002,27.932,13687.2
5326553983,0.634765,2.223,105.697,0.0551885,-0.006013,0.869478,-0.513481,3.51257,0.0175431,-0.232384,0.692056,-0.096691,2.3,2.8,0,11560,49.002,27.932,13687.2
5326654347,0.634765,2.223,105.7,0.040095,-0.014344,0.867524,-0.562679,3.53502,0.0194074,-0.0928795,0.501566,-0.0329496,1.9,-1.7,0,11560,49.002,27.932,13687.2
5326754705,0.634765,2.223,105.706,0.00502578,-0.0193415,0.86873,-0.597432,3.55383,0.0186203,0.0209301,0.403354,0.102157,1.9,-1.7,0,11560,49.002,27.932,13687.2
5326855067,0.634765,2.223,105.707,-0.183248,0.000176385,0.868505,-0.570495,3.52674,0.0635718,0.00276656,-0.709559,0.243863,1.9,-1.7,0,11560,49.002,27.932,13687.2
5326955365,0.634765,2.223,105.706,-0.350982,0.0166154,0.863441,-0.396341,3.31585,0.0290497,-0.379245,-2.75358,0.25766,1.9,-1.7,0,11560,49.002,27.932,13687.2
5327055613,0.634765,2.223,105.697,-0.445813,0.0235341,0.859954,-0.131481,3.00174,-0.0314082,-0.54542,-3.76946,1.5762,1.9,-1.7,0,11560,49.002,27.932,13687.2
5327155847,0.634765,2.223,105.696,-0.484972,0.029224,0.856238,0.196176,2.61704,-0.04073,-0.658501,-4.42208,2.11386,1.9,-1.7,0,11560,49.002,27.932,13687.2
5327256225,0.634765,2.223,105.693,-0.488224,0.0287722,0.855189,0.544098,2.20304,-0.0296263,-0.683264,-4.32972,2.6822,1.9,-1.7,0,11560,49.002,27.932,13687.2
5327356689,0.634765,2.223,105.682,-0.476115,0.0191393,0.857593,0.87864,1.80978,-0.019109,-0.646061,-4.29008,2.27046,1.9,-1.7,0,11560,49.06,28.733,14096.4
5327457066,0.634765,2.223,105.68,-0.438464,0.00770691,0.860096,1.20702,1.44656,-0.0137157,-0.468244,-4.0855,2.13615,1.9,-1.7,0,11560,49.06,28.733,14096.4
5327557406,0.634765,2.223,105.694,-0.370716,-0.00607177,0.861967,1.50406,1.13462,0.0153456,-0.269792,-3.55129,1.67644,1.9,-1.7,0,11560,49.06,28.733,14096.4
5327657824,0.634765,2.223,105.713,-0.294952,-0.0278053,0.86679,1.74223,0.891414,0.0409479,-0.108162,-2.86672,0.799894,3.1,-4.6,0,11560,49.06,28.733,14096.4
5327758201,0.634766,2.223,105.721,-0.247241,-0.053057,0.871388,1.92712,0.734543,0.0392872,0.106489,-1.91807,0.626464,3.1,-4.6,0,11560,49.06,28.733,14096.4
5327858551,0.634766,2.223,105.736,-0.278878,-0.0960767,0.878249,2.09465,0.612713,0.0318165,0.445171,-1.96559,-0.205107,3.1,-4.6,0,11560,49.06,28.733,14096.4
5327958877,0.634766,2.223,105.759,-0.325295,-0.129569,0.88715,2.33292,0.518377,-0.0295984,0.983286,-2.29877,0.379372,3.1,-4.6,0,11560,49.06,28.733,14096.4
5328059270,0.634766,2.223,105.77,-0.356181,-0.146096,0.892492,2.63265,0.410575,-0.039355,1.18243,-2.61395,0.957697,3.1,-4.6,0,11560,49.06,28.733,14096.4
5328159632,0.634766,2.223,105.763,-0.365148,-0.152637,0.895136,2.95673,0.300407,-0.0374732,1.30113,-2.81427,1.1275,3.1,-4.6,0,11560,49.06,28.733,14096.4
5328259968,0.634766,2.223,105.753,-0.368956,-0.151425,0.894392,3.28618,0.190023,-0.038629,1.27304,-2.82927,1.30193,3.1,-4.6,0,11560,49.06,28.733,14096.4
5328360339,0.634766,2.223,105.744,-0.367676,-0.153507,0.895277,3.60525,0.0891657,-0.0431282,1.23807,-2.69162,1.34733,3.1,-4.6,0,11516,49.06,28.037,13755
5328460690,0.634766,2.223,105.734,-0.364404,-0.155014,0.895413,3.92391,-0.00886512,-0.049883,1.25847,-2.70131,1.29876,3.1,-4.6,0,11516,49.06,28.037,13755
5328561080,0.634766,2.223,105.729,-0.341639,-0.144832,0.891672,4.23122,-0.110638,-0.0379026,1.11274,-2.63193,1.34456,3.1,-4.6,0,11516,49.06,28.037,13755
5328665074,0.634766,2.223,105.726,-0.305776,-0.131868,0.887585,4.5033,-0.190568,-0.0226564,1.09592,-2.25687,1.06073,4.5,2.1,0,11516,49.06,28.037,13755
5328766851,0.634766,2.223,105.733,-0.252576,-0.117092,0.879884,4.72952,-0.256195,-0.00392448,0.872963,-1.85638,0.913341,4.5,2.1,0,11516,49.06,28.037,13755
5328867224,0.634766,2.223,105.747,-0.00585538,-0.116162,0.856734,4.9073,-0.297379,0.0612654,0.727621,-1.19267,1.12278,4.5,2.1,0,11516,49.06,28.037,13755
5328967573,0.634766,2.223,105.77,0.254557,-0.112865,0.846252,4.8296,-0.117477,0.142265,0.841388,2.09474,0.721678,4.5,2.1,0,11516,49.06,28.037,13755
5329067954,0.634766,2.223,105.788,0.386736,-0.111272,0.845268,4.57793,0.185143,0.0960859,0.701651,3.94848,0.43518,4.5,2.1,0,11516,49.06,28.037,13755
5329168376,0.634766,2.223,105.789,0.439341,-0.120229,0.843706,4.25842,0.553011,0.0208023,0.636586,4.42156,1.95237,4.5,2.1,0,11516,49.06,28.037,13755
5329268729,0.634766,2.223,105.781,0.454602,-0.123666,0.845638,3.89864,0.963818,-0.00989672,0.727575,4.85318,1.88632,4.5,2.1,0,11516,49.06,28.037,13755
5329369067,0.634767,2.223,105.765,0.4571,-0.126421,0.8488,3.53785,1.38981,-0.0539,0.902652,4.99283,2.13087,4.5,2.1,0,11516,49.06,28.037,13755
5329469399,0.634767,2.223,105.738,0.454119,-0.134447,0.848836,3.16847,1.8177,-0.0847526,0.851904,5.04982,2.21281,4.5,2.1,0,11516,49.024,28.442,13943.4
5329569717,0.634767,2.223,105.701,0.439829,-0.144556,0.847905,2.80303,2.25425,-0.110955,0.845238,4.88547,2.43871,4.5,2.1,0,11516,49.024,28.442,13943.4
5329670089,0.634767,2.223,105.674,0.415279,-0.15782,0.846951,2.45422,2.7061,-0.0976974,0.987101,4.59123,2.67663,2.5,-1.2,0,11516,49.024,28.442,13943.4
5329770435,0.634767,2.223,105.661,0.350157,-0.149713,0.853216,2.13817,3.13688,-0.0818941,1.04576,4.41048,2.11703,2.5,-1.2,0,11516,49.024,28.442,13943.4
5329870810,0.634767,2.223,105.651,0.131349,-0.0285608,0.87667,1.83709,3.54681,0.0192267,0.532088,3.11587,1.18851,2.5,-1.2,0,11516,49.024,28.442,13943.4
5329971181,0.634767,2.223,105.66,-0.166379,0.0944446,0.866293,1.73496,3.51198,0.0436512,-1.10013,-0.229684,-0.199914,2.5,-1.2,0,11516,49.024,28.442,13943.4
5330071541,0.634767,2.223,105.671,-0.356743,0.14499,0.844589,1.78752,3.22655,-0.022289,-1.8637,-2.78767,0.440809,2.5,-1.2,0,11516,49.024,28.442,13943.4
5330171864,0.634767,2.223,105.682,-0.421592,0.14997,0.835021,1.93409,2.81712,-0.0377305,-1.95612,-3.53798,2.3795,2.5,-1.2,0,11516,49.024,28.442,13943.4
5330272267,0.634767,2.223,105.694,-0.388852,0.123391,0.840169,2.09441,2.38737,0.00105366,-1.97205,-3.74587,1.9037,2.5,-1.2,0,11516,49.024,28.442,13943.4
5330372630,0.634767,2.223,105.704,-0.321202,0.0863029,0.84998,2.22063,2.06501,0.0132621,-1.46988,-2.94956,1.0342,2.5,-1.2,0,11516,49.024,28.442,13943.4
5330472985,0.634767,2.223,105.716,-0.257401,0.054644,0.857118,2.31896,1.82416,0.0238081,-1.11928,-2.32476,0.340255,2.5,-1.2,0,11516,49.043,28.967,14206.3
5330573336,0.634767,2.223,105.725,-0.205899,0.0285891,0.861709,2.39395,1.64441,0.0224208,-0.738643,-1.65996,0.344113,2.5,-1.2,0,11516,49.043,28.967,14206.3
5330673724,0.634767,2.223,105.731,-0.166777,0.0062975,0.865313,2.45902,1.5071,0.0150889,-0.453815,-1.33755,-0.204881,-2.1,-5,0,11516,49.043,28.967,14206.3
5330774072,0.634767,2.223,105.731,-0.146963,0.0158815,0.863721,2.50875,1.41094,0.0040258,-0.139544,-0.790449,0.310802,-2.1,-5,0,11516,49.043,28.967,14206.3
5330874535,0.634767,2.223,105.73,-0.187817,0.119061,0.85913,2.54499,1.29113,0.0153241,-0.799318,-0.952657,0.0813223,-2.1,-5,0,11516,49.043,28.967,14206.3
5330974917,0.634767,2.223,105.726,-0.242049,0.210447,0.843849,2.53331,1.0365,-0.0185893,-1.99426,-1.43804,0.381097,-2.1,-5,0,11516,49.043,28.967,14206.3
5331075251,0.634767,2.223,105.72,-0.279664,0.270175,0.830026,2.50999,0.685,-0.0427093,-2.63991,-1.81083,1.08054,-2.1,-5,0,11516,49.043,28.967,14206.3
5331175511,0.634767,2.223,105.723,-0.293126,0.296271,0.822333,2.47138,0.279634,-0.038942,-3.02422,-1.91154,1.49556,-2.1,-5,0,11516,49.043,28.967,14206.3
5331275880,0.634767,2.223,105.724,-0.298437,0.301491,0.818643,2.4268,-0.130427,-0.0434627,-3.12994,-2.03767,1.42929,-2.1,-5,0,11516,49.043,28.967,14206.3
5331376294,0.634767,2.223,105.715,-0.293438,0.298709,0.8182,2.38575,-0.544371,-0.0406554,-3.04854,-1.98602,1.66188,-2.1,-5,0,11516,49.043,28.967,14206.3
5331476608,0.634767,2.223,105.705,-0.288386,0.288731,0.819651,2.33874,-0.95728,-0.0245331,-3.06605,-1.95066,1.75701,-2.1,-5,0,11516,49.145,26.752,13147.3
5331576860,0.634767,2.223,105.696,-0.286439,0.277486,0.821834,2.30509,-1.35415,-0.0181053,-2.87272,-1.98262,1.48658,-2.1,-5,0,11516,49.145,26.752,13147.3
5331677178,0.634767,2.223,105.685,-0.292998,0.264023,0.824373,2.26409,-1.72409,-0.01925,-2.73121,-1.78327,1.3267,-3,-4.4,0,11516,49.145,26.752,13147.3
5331777410,0.634767,2.223,105.676,-0.288265,0.267381,0.826355,2.24436,-2.07839,-0.0210287,-2.2819,-1.69451,1.89307,-3,-4.4,0,11516,49.145,26.752,13147.3
5331877661,0.634767,2.223,105.677,-0.250235,0.300417,0.832231,2.20947,-2.44697,0.0130346,-2.82393,-1.66305,1.36437,-3,-4.4,0,11516,49.145,26.752,13147.3
5331977942,0.634767,2.223,105.685,-0.226319,0.314173,0.83446,2.11572,-2.79091,0.00991321,-2.99533,-1.38167,1.035,-3,-4.4,0,11516,49.145,26.752,13147.3
5332078282,0.634767,2.223,105.692,-0.216613,0.316407,0.835161,2.01368,-3.11761,0.00880888,-2.79161,-1.12647,1.39741,-3,-4.4,0,11516,49.145,26.752,13147.3
5332178585,0.634767,2.223,105.699,-0.218772,0.311424,0.835535,1.89968,-3.44475,0.00463058,-2.94792,-1.19562,0.84236,-3,-4.4,0,11516,49.145,26.752,13147.3
5332278954,0.634767,2.223,105.706,-0.220155,0.288504,0.838016,1.79369,-3.76144,0.00518439,-2.79654,-1.14708,1.19202,-3,-4.4,0,11516,49.145,26.752,13147.3
5332379301,0.634767,2.223,105.712,-0.211154,0.251421,0.843916,1.71101,-4.04376,0.0104623,-2.42798,-1.17386,0.862651,-3,-4.4,0,11516,49.145,26.752,13147.3
5332479638,0.634767,2.223,105.712,-0.202093,0.216706,0.849574,1.64812,-4.27456,0.0100971,-2.0162,-0.941789,0.692192,-3,-4.4,0,11516,49.111,27.039,13279.1
5332580043,0.634767,2.223,105.708,-0.192131,0.184173,0.854512,1.60235,-4.47093,0.0198533,-1.62056,-0.93409,0.43643,-3,-4.4,0,11516,49.111,27.039,13279.1
5332680419,0.634768,2.223,105.705,-0.178989,0.155944,0.858482,1.57281,-4.63052,0.0110009,-1.24689,-0.749866,0.537084,4.5,4.7,0,11516,49.111,27.039,13279.1
5332780770,0.634768,2.223,105.701,-0.14189,0.104443,0.866414,1.553,-4.76343,0.0213591,-1.09523,-0.659637,0.707407,4.5,4.7,0,11516,49.111,27.039,13279.1
5332881128,0.634768,2.223,105.696,0.0547998,-0.0862213,0.868083,1.53983,-4.83284,0.0751275,-0.275681,-0.124275,0.445539,4.5,4.7,0,11516,49.111,27.039,13279.1
5332981475,0.634768,2.223,105.701,0.22799,-0.227825,0.839006,1.49392,-4.52779,0.115768,2.07932,2.32643,0.973504,4.5,4.7,0,11516,49.111,27.039,13279.1
5333081842,0.634768,2.223,105.698,0.320055,-0.284756,0.816013,1.42267,-4.0751,0.0341761,2.91028,3.38396,1.09285,4.5,4.7,0,11516,49.111,27.039,13279.1
5333182192,0.634768,2.223,105.682,0.372034,-0.303031,0.804728,1.31656,-3.52634,-0.00689495,3.04375,3.94913,2.30209,4.5,4.7,0,11516,49.111,27.039,13279.1
5333282510,0.634768,2.223,105.659,0.400303,-0.296134,0.806477,1.1922,-2.94354,-0.0666392,3.16619,4.2223,2.28285,4.5,4.7,0,11516,49.111,27.039,13279.1
5333382882,0.634768,2.223,105.628,0.42209,-0.2812,0.811834,1.03421,-2.34491,-0.0996331,3.04869,4.39477,2.71989,4.5,4.7,0,11516,49.111,27.039,13279.1
5333483226,0.634768,2.223,105.594,0.431732,-0.267987,0.816238,0.848192,-1.73314,-0.123963,2.69715,4.34974,3.53561,4.5,4.7,0,11516,49.078,26.3,12907.5
5333583572,0.634768,2.223,105.566,0.423679,-0.268275,0.81553,0.627034,-1.10735,-0.0943466,2.66155,4.68837,3.17787,4.5,4.7,0,11516,49.078,26.3,12907.5
5333683961,0.634768,2.223,105.54,0.400337,-0.26778,0.817464,0.42359,-0.500079,-0.090119,2.55808,4.50193,3.0156,-3.7,2,0,11516,49.078,26.3,12907.5
5333784409,0.634768,2.223,105.531,0.366713,-0.253312,0.822415,0.245029,0.103084,-0.0647201,2.67672,4.29409,2.92904,-3.7,2,0,11516,49.078,26.3,12907.5
5333884737,0.634768,2.223,105.528,0.28522,-0.0439813,0.850555,0.0819304,0.66787,0.0277047,2.4172,3.82239,3.16834,-3.7,2,0,11516,49.078,26.3,12907.5
5333985119,0.634768,2.223,105.545,0.188329,0.216843,0.874756,-0.20635,0.912457,0.149192,-0.705515,3.15369,0.977973,-3.7,2,0,11516,49.078,26.3,12907.5
5334085467,0.634768,2.223,105.573,0.107414,0.367995,0.882995,-0.532213,0.869577,0.0611377,-2.92739,1.88228,0.0232327,-3.7,2,0,11516,49.078,26.3,12907.5
5334185766,0.634768,2.223,105.612,0.0552273,0.436803,0.884077,-0.90159,0.679302,0.0274844,-3.83595,1.22513,1.72503,-3.7,2,0,11516,49.078,26.3,12907.5
5334286068,0.634768,2.223,105.653,0.031616,0.453435,0.885544,-1.27591,0.408145,0.0481372,-4.27288,0.802572,1.89377,-3.7,2,0,11516,49.078,26.3,12907.5
5334386416,0.634768,2.223,105.692,0.0270058,0.446861,0.887452,-1.62207,0.119004,0.057271,-4.19796,0.64398,1.78408,-3.7,2,0,11516,49.078,26.3,12907.5
5334486743,0.634768,2.223,105.721,0.0334278,0.434265,0.888814,-1.95573,-0.161574,0.0628679,-4.094,0.625672,1.62398,-3.7,2,0,11516,49.078,26.3,12907.5
5334587098,0.634768,2.223,105.729,0.0407599,0.419644,0.889443,-2.27942,-0.431324,0.0609542,-3.87641,0.634073,1.4016,-3.7,2,0,11516,49.198,26.415,12995.7
5334687458,0.634767,2.223,105.733,0.0435997,0.391185,0.88813,-2.5924,-0.685409,0.0464061,-3.68799,0.759395,1.32877,3.8,2.1,0,11516,49.198,26.415,12995.7
5334787794,0.634767,2.223,105.73,0.038925,0.319553,0.883437,-2.87766,-0.923061,0.0385982,-3.33842,0.700077,0.934012,3.8,2.1,0,11516,49.198,26.415,12995.7
5334888199,0.634767,2.223,105.721,0.0206345,0.0427776,0.875425,-3.12761,-1.1146,0.0520149,-2.52638,0.67229,0.747485,3.8,2.1,0,11516,49.198,26.415,12995.7
5334988547,0.634767,2.223,105.708,-0.000840015,-0.251783,0.871228,-3.1135,-1.03163,0.0648354,1.42154,0.461976,-0.0142597,3.8,2.1,0,11516,49.198,26.415,12995.7
5335088914,0.634767,2.223,105.69,-0.0112353,-0.401509,0.868943,-2.89966,-0.762512,-0.0186622,3.56364,0.209623,0.845812,3.8,2.1,0,11516,49.198,26.415,12995.7
5335189268,0.634767,2.223,105.66,-0.0116817,-0.472153,0.865469,-2.58838,-0.393477,-0.0758206,4.58689,0.144782,2.07287,3.8,2.1,0,11516,49.198,26.415,12995.7
5335289627,0.634767,2.223,105.633,-0.00409679,-0.494539,0.861468,-2.23518,0.0332198,-0.0810835,4.91465,0.240497,2.74536,3.8,2.1,0,11516,49.198,26.415,12995.7
5335389944,0.634767,2.223,105.593,0.00576229,-0.491361,0.858321,-1.86953,0.475218,-0.0754802,4.98819,0.253686,2.99634,3.8,2.1,0,11516,49.198,26.415,12995.7
5335490295,0.634767,2.223,105.567,0.0159891,-0.482219,0.856979,-1.50802,0.934908,-0.0519816,4.89071,0.405539,3.11116,3.8,2.1,0,11516,49.198,26.415,12995.7
5335590600,0.634767,2.223,105.559,0.0217551,-0.468533,0.855992,-1.16705,1.39277,-0.0302059,4.74685,0.470525,2.88678,3.8,2.1,0,11516,49.193,26.651,13110.4
5335691006,0.634767,2.223,105.556,0.0278429,-0.449158,0.854933,-0.777562,1.92773,0.0142734,4.52702,0.540402,2.60204,4.5,1.2,0,11516,49.193,26.651,13110.4
5335791289,0.634767,2.223,105.561,0.0167643,-0.432682,0.857422,-0.490217,2.34202,0.0401997,4.14205,0.672373,2.12317,4.5,1.2,0,11516,49.193,26.651,13110.4
5335891703,0.634767,2.223,105.571,-0.0597194,-0.417363,0.874248,-0.164039,2.71061,0.070808,4.06685,-0.0799723,2.11628,4.5,1.2,0,11516,49.193,26.651,13110.4
5335992085,0.634767,2.223,105.588,-0.108567,-0.403868,0.883775,0.174306,3.00386,0.0667462,3.88019,-0.543771,1.31815,4.5,1.2,0,11516,49.193,26.651,13110.4
5336092439,0.634767,2.223,105.607,-0.134287,-0.36156,0.884285,0.536575,3.25795,0.0588815,3.56121,-0.942093,1.62651,4.5,1.2,0,11516,49.193,26.651,13110.4
5336192815,0.634767,2.223,105.625,-0.133298,-0.310703,0.879771,0.865502,3.45235,0.0709426,3.06926,-1.02783,1.18066,4.5,1.2,0,11516,49.193,26.651,13110.4
5336293179,0.634767,2.223,105.641,-0.11962,-0.257489,0.874325,1.14185,3.60509,0.0660072,2.53458,-0.93894,0.578934,4.5,1.2,0,11516,49.193,26.651,13110.4
5336393536,0.634767,2.223,105.657,-0.0965527,-0.209291,0.87,1.35297,3.71685,0.0647121,1.8888,-0.753902,0.376014,4.5,1.2,0,11516,49.193,26.651,13110.4
5336493882,0.634767,2.223,105.671,-0.0772475,-0.168074,0.867626,1.51083,3.80356,0.064628,1.4277,-0.550794,0.096737,4.5,1.2,0,11516,49.193,26.651,13110.4
5336594255,0.634767,2.223,105.684,-0.0623029,-0.138851,0.866235,1.62501,3.873,0.0494608,1.11251,-0.298097,-0.11816,4.5,1.2,0,11516,48.927,30.454,14900.2
5336695159,0.634767,2.223,105.692,-0.049424,-0.113735,0.86559,1.71499,3.91844,0.0452662,0.802,-0.266774,-0.0638302,0.3,-2.8,0,11516,48.927,30.454,14900.2
5336797033,0.634767,2.223,105.706,-0.0553388,-0.0688495,0.863088,1.77933,3.95209,0.0406111,0.639491,-0.099723,0.54044,0.3,-2.8,0,11516,48.927,30.454,14900.2
5336899338,0.634767,2.223,105.72,-0.179296,0.121072,0.855337,1.82024,3.92075,0.126442,-0.441115,-0.656968,-0.217598,0.3,-2.8,0,11516,48.927,30.454,14900.2
5336999739,0.634767,2.223,105.735,-0.284707,0.241554,0.831213,1.81837,3.6492,0.0373016,-2.18943,-1.88213,0.0543747,0.3,-2.8,0,11516,48.927,30.454,14900.2
5337100354,0.634767,2.223,105.743,-0.3531,0.309225,0.80916,1.82282,3.22422,-0.0152873,-2.98926,-2.52283,1.59803,0.3,-2.8,0,11516,48.927,30.454,14900.2
5337200732,0.634768,2.223,105.756,-0.384691,0.334472,0.79766,1.82677,2.68866,-0.0218308,-3.56891,-3.05211,2.20561,0.3,-2.8,0,11516,48.927,30.454,14900.2
