timestamp,lat,log,alt,roll,pitch,yaw,vel_x,vel_y,vel_z,acc_x,acc_y,acc_z,act_vx,act_vy,act_yr,capacity,vol,cur,power
202600741,0.634769,2.223,89.0379,0.0033707,-0.00943256,0.859595,0.016599,0.131915,-0.018974,0.0979161,0.0122204,0.01674,-2,-1.4,0,12150,48.897,25.059,12253.1
202701262,0.634769,2.223,89.0347,0.000767114,-0.0106558,0.859367,0.0160144,0.129372,-0.0193554,0.0257181,0.0402692,0.0302759,-2,-1.4,0,12150,48.897,25.059,12253.1
202801695,0.634769,2.223,89.0294,-0.00447381,-0.00809365,0.858403,0.0291798,0.130793,-0.0218519,0.172586,-0.0791631,-0.136635,-2,-1.4,0,12150,48.897,25.059,12253.1
202902037,0.634769,2.223,89.0212,-0.0797646,0.118809,0.852819,0.031801,0.126258,0.0295399,-0.224682,-0.150455,0.464162,-2,-1.4,0,12150,48.897,25.059,12253.1
203002311,0.634769,2.223,89.0184,-0.166158,0.234982,0.839698,0.000393653,-0.0839788,0.0042672,-1.86356,-1.22863,-0.101785,-2,-1.4,0,12150,48.897,25.059,12253.1
203102604,0.634769,2.223,89.0166,-0.221718,0.303283,0.825939,-0.0394745,-0.415457,-0.0364439,-2.60691,-1.75506,1.2197,-2,-1.4,0,12150,48.897,25.059,12253.1
203202897,0.634769,2.223,89.0128,-0.229275,0.308824,0.825093,-0.0796098,-0.826058,-0.0391724,-2.99101,-2.13949,1.59965,-2,-1.4,0,12150,48.897,25.059,12253.1
203303214,0.634769,2.223,89.015,-0.202879,0.278706,0.8324,-0.109669,-1.21311,-0.0196743,-2.73202,-1.98714,1.46073,-2,-1.4,0,12150,48.897,25.059,12253.1
203403666,0.634769,2.223,89.0179,-0.169015,0.235458,0.840321,-0.146856,-1.54244,-0.0124811,-2.47469,-1.68139,0.946584,-2,-1.4,0,12150,48.897,25.059,12253.1
203504068,0.634769,2.223,89.0197,-0.135888,0.189513,0.847051,-0.171049,-1.80753,-0.000265129,-1.94122,-1.39327,0.679991,-2,-1.4,0,12150,48.882,25.163,12300.2
203604495,0.634769,2.223,89.0179,-0.104101,0.147035,0.852072,-0.187532,-2.01639,0.00702171,-1.49464,-1.10977,0.199132,3.1,-3.7,0,12150,48.882,25.163,12300.2
203704804,0.634769,2.223,89.0171,-0.0907564,0.0816746,0.852753,-0.206522,-2.15631,-0.00319032,-1.15339,-0.598839,0.175156,3.1,-3.7,0,12150,48.882,25.163,12300.2
203805174,0.634769,2.223,89.0122,-0.131863,-0.134678,0.86326,-0.173286,-2.24732,0.0196833,0.143248,-0.81073,0.483909,3.1,-3.7,0,12150,48.882,25.163,12300.2
203905533,0.634769,2.223,89.0131,-0.160147,-0.286864,0.881978,0.0710592,-2.157,0.00219725,2.50541,-1.11557,0.124888,3.1,-3.7,0,12150,48.882,25.163,12300.2
204005893,0.634769,2.223,89.0116,-0.184335,-0.371981,0.896187,0.405327,-1.99446,-0.0528946,3.41368,-1.27427,1.43281,3.1,-3.7,0,12150,48.882,25.163,12300.2
204106234,0.634769,2.223,88.995,-0.197825,-0.405571,0.904058,0.834125,-1.77537,-0.0438942,3.96313,-1.45476,2.43095,3.1,-3.7,0,12150,48.882,25.163,12300.2
204206595,0.634769,2.223,88.9708,-0.206924,-0.407517,0.906558,1.28098,-1.53485,-0.0319574,4.13189,-1.47891,2.42202,3.1,-3.7,0,12150,48.882,25.163,12300.2
204306939,0.634769,2.223,88.9493,-0.21295,-0.392903,0.90624,1.72794,-1.30994,-0.0282822,3.97136,-1.58518,2.42931,3.1,-3.7,0,12150,48.882,25.163,12300.2
204407289,0.634769,2.223,88.9328,-0.218062,-0.374904,0.904851,2.15745,-1.11361,-0.016276,3.74205,-1.6519,2.17431,3.1,-3.7,0,12150,48.882,25.163,12300.2
204507624,0.634769,2.223,88.9214,-0.22272,-0.361054,0.90357,2.57339,-0.940314,-0.00262232,3.50446,-1.73168,2.00422,3.1,-3.7,0,12150,48.882,25.163,12300.2
204608048,0.634769,2.223,88.9218,-0.228945,-0.349431,0.902129,2.98765,-0.782483,0.00425552,3.37674,-1.75439,1.77425,-2.4,-3.4,0,12150,48.882,25.163,12300.2
204708442,0.634769,2.223,88.9285,-0.213144,-0.277765,0.892937,3.39549,-0.633567,0.0175577,3.26541,-1.81572,1.93488,-2.4,-3.4,0,12150,48.882,25.163,12300.2
204808800,0.634769,2.223,88.9393,-0.149178,0.00183314,0.87203,3.73128,-0.558804,0.124265,1.96265,-1.6895,1.32637,-2.4,-3.4,0,12150,48.882,25.163,12300.2
204909102,0.634769,2.223,88.9568,-0.0834174,0.260966,0.855642,3.72316,-0.726613,0.14099,-1.94298,-0.913349,-0.417197,-2.4,-3.4,0,12150,48.882,25.163,12300.2
205009903,0.634769,2.223,88.9767,-0.0476009,0.389275,0.851716,3.53235,-0.998171,0.0526151,-3.42071,-0.270607,0.716277,-2.4,-3.4,0,12150,48.882,25.163,12300.2
205112549,0.634769,2.223,89.0096,-0.0370981,0.457566,0.849282,3.2506,-1.34375,0.0138613,-4.31977,-0.044902,1.49001,-2.4,-3.4,0,12136,48.867,25.231,12329.6
205212949,0.634769,2.223,89.0669,-0.0418631,0.48379,0.845454,2.92846,-1.73022,2.224e-06,-4.65421,-0.12753,1.84409,-2.4,-3.4,0,12136,48.867,25.231,12329.6
205313304,0.634769,2.223,89.1097,-0.0514564,0.47856,0.841793,2.59213,-2.13375,-0.00264312,-4.57051,-0.0619047,2.12543,-2.4,-3.4,0,12136,48.867,25.231,12329.6
205413658,0.634769,2.223,89.108,-0.0596711,0.454943,0.840136,2.27195,-2.53145,-0.00605305,-4.71685,-0.181495,1.54005,-2.4,-3.4,0,12136,48.867,25.231,12329.6
205514009,0.634769,2.223,89.1129,-0.0602986,0.39478,0.842519,1.97802,-2.90687,-0.0166626,-4.11404,-0.214659,1.85065,-2.4,-3.4,0,12136,48.867,25.231,12329.6
205614403,0.634769,2.223,89.1228,-0.0570019,0.32094,0.846926,1.73013,-3.2259,-0.00586234,-3.54806,-0.237578,0.961297,-2.3,1.8,0,12136,48.867,25.231,12329.6
205714719,0.634769,2.223,89.1223,-0.0391871,0.246551,0.850512,1.53373,-3.47363,-0.0124075,-2.73527,-0.206286,0.547504,-2.3,1.8,0,12136,48.867,25.231,12329.6
205815084,0.634769,2.223,89.0999,0.125512,0.149333,0.873069,1.3626,-3.66728,0.0992393,-2.0102,0.0882115,1.20053,-2.3,1.8,0,12136,48.867,25.231,12329.6
205915453,0.634769,2.223,89.0902,0.300698,0.0809101,0.875967,1.13423,-3.61454,0.0241983,-0.871146,2.38513,-0.539056,-2.3,1.8,0,12136,48.867,25.231,12329.6
206015827,0.634769,2.223,89.0789,0.401032,0.048568,0.86895,0.744753,-3.38415,-0.0920427,-0.337747,3.714,1.32513,-2.3,1.8,0,12136,48.859,28.354,13853.5
206116217,0.634769,2.223,89.0619,0.451881,0.0375223,0.863792,0.340361,-3.08819,-0.108897,-0.180831,4.41874,2.07553,-2.3,1.8,0,12136,48.859,28.354,13853.5
206216577,0.634769,2.223,89.0432,0.467987,0.0387912,0.861379,-0.0944911,-2.74942,-0.112003,-0.0727102,4.64464,2.58335,-2.3,1.8,0,12136,48.859,28.354,13853.5
206316940,0.634769,2.223,89.0127,0.463891,0.0436421,0.859738,-0.533765,-2.41516,-0.107084,-0.158004,4.5673,2.73289,-2.3,1.8,0,12136,48.859,28.354,13853.5
206417278,0.634769,2.223,88.9644,0.454103,0.048797,0.859623,-0.962923,-2.07912,-0.0896731,-0.150225,4.48584,2.78588,-2.3,1.8,0,12136,48.859,28.354,13853.5
206517668,0.634769,2.223,88.9296,0.436735,0.0559161,0.861348,-1.38925,-1.75668,-0.0626857,-0.27832,4.39563,2.55926,-2.3,1.8,0,12136,48.859,28.354,13853.5
206618027,0.634769,2.223,88.9305,0.375931,0.0542364,0.860306,-1.77624,-1.46675,-0.042067,-0.254143,3.94217,2.15668,-2.6,2.7,0,12136,48.859,28.354,13853.5
206718388,0.634769,2.223,88.9329,0.318933,0.0582466,0.860696,-2.09563,-1.22808,0.00377692,-0.196298,3.09194,1.88037,-2.6,2.7,0,12136,48.859,28.354,13853.5
206818742,0.634769,2.223,88.9309,0.320457,0.0711674,0.864862,-2.38137,-1.01731,0.0223792,-0.338953,3.26009,0.743988,-2.6,2.7,0,12136,48.859,28.354,13853.5
206919082,0.634769,2.223,88.9404,0.296938,0.0787227,0.866395,-2.66636,-0.827737,0.0204925,-0.432447,2.92755,1.09437,-2.6,2.7,0,12136,48.859,28.354,13853.5
207019447,0.634769,2.223,88.964,0.264776,0.0806927,0.867368,-2.9302,-0.662394,0.0275888,-0.472535,2.71088,0.736288,-2.6,2.7,0,12136,48.859,28.354,13853.5
207119790,0.634769,2.223,88.9844,0.222918,0.0775744,0.867317,-3.15401,-0.528586,0.0396222,-0.41207,2.19408,0.505354,-2.6,2.7,0,12136,48.652,28.944,14081.8
207220126,0.634769,2.223,89.0061,0.181024,0.072146,0.866841,-3.33394,-0.425935,0.0425104,-0.35556,1.79083,0.290765,-2.6,2.7,0,12136,48.652,28.944,14081.8
207320480,0.634769,2.223,89.0258,0.14367,0.0675602,0.8668,-3.47827,-0.346893,0.0385541,-0.387555,1.38951,0.168114,-2.6,2.7,0,12136,48.652,28.944,14081.8
207420869,0.634769,2.223,89.0471,0.115337,0.0626404,0.865995,-3.58639,-0.294341,0.0411565,-0.338486,1.04732,-0.23696,-2.6,2.7,0,12136,48.652,28.944,14081.8
207521195,0.634769,2.223,89.0681,0.0932678,0.0581047,0.864635,-3.65901,-0.249788,0.0279924,-0.178604,0.755988,-0.141758,-2.6,2.7,0,12136,48.652,28.944,14081.8
207621608,0.634769,2.223,89.0834,0.0761332,0.0529598,0.864153,-3.70927,-0.219207,0.0372308,-0.0773813,0.528054,0.046305,3.2,-4.2,0,12136,48.652,28.944,14081.8
207721970,0.634769,2.223,89.0974,0.0408209,0.0269014,0.861393,-3.7358,-0.203591,0.0374111,-0.106264,0.329207,0.210823,3.2,-4.2,0,12136,48.652,28.944,14081.8
207822357,0.634769,2.223,89.1088,-0.130039,-0.117555,0.869137,-3.70003,-0.181934,0.0950685,0.683456,-0.42514,0.537816,3.2,-4.2,0,12136,48.652,28.944,14081.8
207922779,0.634769,2.223,89.1239,-0.277968,-0.223794,0.895128,-3.38656,-0.169999,0.0544891,2.18793,-2.3389,0.204566,3.2,-4.2,0,12136,48.652,28.944,14081.8
208023131,0.634768,2.223,89.1293,-0.365128,-0.277538,0.915428,-2.9355,-0.161556,-0.0213744,2.85286,-3.19197,1.66287,3.2,-4.2,0,12136,48.652,28.944,14081.8
208123472,0.634768,2.223,89.1174,-0.412875,-0.305438,0.927105,-2.37057,-0.174794,-0.0587247,3.17039,-3.78457,2.5433,3.2,-4.2,0,12136,48.692,30.19,14700.1
208223814,0.634768,2.223,89.0953,-0.433144,-0.325458,0.934561,-1.75692,-0.188547,-0.118067,3.31252,-3.88207,3.03079,3.2,-4.2,0,12136,48.692,30.19,14700.1
208324211,0.634768,2.223,89.0676,-0.438833,-0.330264,0.935365,-1.08711,-0.19783,-0.121704,3.55709,-4.08006,3.3551,3.2,-4.2,0,12136,48.692,30.19,14700.1
208425409,0.634768,2.223,89.0377,-0.430706,-0.323049,0.931226,-0.423583,-0.205776,-0.123305,3.55278,-4.08844,3.28935,3.2,-4.2,0,12136,48.692,30.19,14700.1
208527736,0.634768,2.223,89.016,-0.41448,-0.310515,0.925386,0.226518,-0.229834,-0.1061,3.28342,-3.95064,3.49096,3.2,-4.2,0,12136,48.692,30.19,14700.1
208628146,0.634768,2.223,89.0023,-0.391061,-0.296395,0.918359,0.847561,-0.246823,-0.0835167,3.21686,-3.84975,3.04337,4.4,-2.3,0,12136,48.692,30.19,14700.1
208728510,0.634768,2.223,88.9904,-0.342599,-0.293955,0.909616,1.41859,-0.269242,-0.0542641,2.94761,-3.67253,2.65699,4.4,-2.3,0,12136,48.692,30.19,14700.1
208828887,0.634768,2.223,88.9886,-0.231729,-0.338695,0.889199,1.92937,-0.240285,-0.0121206,3.07849,-2.7961,2.28525,4.4,-2.3,0,12136,48.692,30.19,14700.1
208929247,0.634769,2.223,88.9886,-0.134007,-0.377298,0.878461,2.35248,-0.0881196,-0.00998227,3.61299,-1.7603,1.45269,4.4,-2.3,0,12136,48.692,30.19,14700.1
209029599,0.634769,2.223,88.9953,-0.0679308,-0.394622,0.873275,2.71184,0.146696,-0.0174268,3.69933,-0.789186,1.60077,4.4,-2.3,0,12136,48.692,30.19,14700.1
209129923,0.634769,2.223,88.9978,-0.0331429,-0.398496,0.872252,3.02698,0.437309,-0.0145818,3.78599,-0.223868,1.67047,4.4,-2.3,0,12091,48.734,29.963,14602.2
209230296,0.634769,2.223,89.0022,-0.0201022,-0.367283,0.872927,3.3182,0.746438,0.00402464,3.74902,-0.0478985,1.61374,4.4,-2.3,0,12091,48.734,29.963,14602.2
209330658,0.634769,2.223,89.013,-0.0192057,-0.313478,0.873187,3.5602,1.01366,0.0308294,3.18538,-0.0178791,1.21489,4.4,-2.3,0,12091,48.734,29.963,14602.2
209431014,0.634769,2.223,89.0305,-0.0221813,-0.261578,0.872281,3.75097,1.21722,0.0342516,2.60567,-0.0723631,0.476217,4.4,-2.3,0,12091,48.734,29.963,14602.2
209531350,0.634769,2.223,89.0511,-0.022075,-0.219429,0.870172,3.89938,1.38182,0.0357989,2.07094,-0.0158516,0.33226,4.4,-2.3,0,12091,48.734,29.963,14602.2
209631709,0.634769,2.223,89.0766,-0.0238239,-0.183712,0.869104,4.01132,1.5088,0.029476,1.65267,-0.0432894,0.0821903,3.3,-2.3,0,12091,48.734,29.963,14602.2
209732671,0.634769,2.223,89.0965,-0.0243112,-0.142515,0.86798,4.09723,1.60043,0.0258409,1.20129,-0.0547563,0.0870586,3.3,-2.3,0,12091,48.734,29.963,14602.2
209834701,0.634769,2.223,89.1375,-0.0286353,-0.0459276,0.866221,4.1456,1.66565,0.0493592,0.577799,-0.00964488,-0.347901,3.3,-2.3,0,12091,48.734,29.963,14602.2
209935065,0.634769,2.223,89.1486,-0.035516,0.0241392,0.86318,4.12738,1.64074,0.0102173,-0.353543,-0.0856348,-0.619395,3.3,-2.3,0,12091,48.734,29.963,14602.2
210035418,0.634769,2.223,89.1548,-0.0389101,0.0598277,0.860231,4.07473,1.55694,-0.0128856,-0.94459,-0.234451,0.0854959,3.3,-2.3,0,12091,48.734,29.963,14602.2
210135736,0.634769,2.223,89.1589,-0.0408991,0.0695469,0.85879,4.00491,1.45376,-0.0266784,-1.13279,-0.231576,-0.119246,3.3,-2.3,0,12091,48.734,29.963,14602.2
210236112,0.634769,2.223,89.1584,-0.0417816,0.0622471,0.85846,3.92229,1.34628,-0.0365888,-1.20787,-0.176608,-0.414775,3.3,-2.3,0,12091,48.753,27.116,13219.9
210336431,0.634769,2.223,89.1504,-0.0427194,0.0440047,0.858595,3.84876,1.24398,-0.0507387,-1.06257,-0.196379,-0.00626076,3.3,-2.3,0,12091,48.753,27.116,13219.9
210436794,0.63477,2.223,89.1412,-0.0422765,0.0229539,0.858851,3.78924,1.14919,-0.0521809,-0.907785,-0.226368,-0.00748197,3.3,-2.3,0,12091,48.753,27.116,13219.9
210537198,0.63477,2.223,89.1312,-0.0423205,-0.00273127,0.859966,3.73734,1.07573,-0.06437,-0.624264,-0.166951,-0.0510999,3.3,-2.3,0,12091,48.753,27.116,13219.9
210637604,0.63477,2.223,89.1217,-0.0425329,-0.0219927,0.861229,3.70702,1.02592,-0.0765636,-0.365518,-0.178028,-0.125475,-3.3,-5,0,12091,48.753,27.116,13219.9
210737984,0.63477,2.223,89.1156,-0.0444863,-0.0199242,0.859674,3.6935,0.977108,-0.0591468,-0.0240463,-0.155249,0.656091,-3.3,-5,0,12091,48.753,27.116,13219.9
210838296,0.63477,2.223,89.122,-0.0890724,0.148211,0.854308,3.66682,0.900971,0.013003,-0.987398,-0.408226,0.25898,-3.3,-5,0,12091,48.753,27.116,13219.9
210938669,0.63477,2.223,89.1248,-0.135698,0.294722,0.839008,3.52787,0.616922,-0.0375018,-2.96748,-0.87369,0.257122,-3.3,-5,0,12091,48.753,27.116,13219.9
211039022,0.63477,2.223,89.1278,-0.169557,0.390393,0.822872,3.34617,0.211662,-0.0677159,-3.82282,-1.18409,1.7529,-3.3,-5,0,12091,48.753,27.116,13219.9
211139392,0.63477,2.223,89.144,-0.191958,0.434553,0.811281,3.12568,-0.284208,-0.0736278,-4.44184,-1.42254,2.27021,-3.3,-5,0,12091,48.585,30.671,14901.5
211239746,0.63477,2.223,89.1538,-0.203561,0.449828,0.804848,2.89781,-0.796268,-0.080011,-4.57323,-1.43481,2.3983,-3.3,-5,0,12091,48.585,30.671,14901.5
211340466,0.63477,2.223,89.1277,-0.209045,0.445186,0.803028,2.67436,-1.31121,-0.0986705,-4.58305,-1.4985,2.25494,-3.3,-5,0,12091,48.585,30.671,14901.5
211440792,0.63477,2.223,89.1038,-0.216492,0.431436,0.802855,2.46926,-1.82304,-0.107583,-4.36894,-1.53479,2.64136,-3.3,-5,0,12091,48.585,30.671,14901.5
211541200,0.63477,2.223,89.1042,-0.224443,0.414813,0.804674,2.27881,-2.33156,-0.0941835,-4.18067,-1.61031,2.57385,-3.3,-5,0,12091,48.585,30.671,14901.5
211643226,0.63477,2.223,89.1002,-0.233828,0.389475,0.808418,2.12432,-2.80244,-0.0904386,-3.77085,-1.66005,1.97209,-0.7,-3.6,0,12091,48.585,30.671,14901.5
211743597,0.63477,2.223,89.0745,-0.217587,0.333125,0.820941,1.99885,-3.27291,-0.0757632,-3.85657,-1.88154,1.97185,-0.7,-3.6,0,12091,48.585,30.671,14901.5
211843967,0.63477,2.223,89.0634,-0.115754,0.109172,0.85109,1.89755,-3.6552,-0.0168632,-2.6499,-1.11044,2.22497,-0.7,-3.6,0,12091,48.585,30.671,14901.5
211944351,0.63477,2.223,89.0801,-0.0342412,-0.0561942,0.859689,1.89925,-3.71138,0.0221787,-0.0779723,-0.285625,-0.496583,-0.7,-3.6,0,12091,48.585,30.671,14901.5
212044714,0.63477,2.223,89.0839,0.00286081,-0.139133,0.861214,1.94782,-3.61454,-0.0253548,1.28182,0.352485,-0.0870663,-0.7,-3.6,0,12091,48.585,30.671,14901.5
212145081,0.63477,2.223,89.0738,0.0145244,-0.162202,0.86204,2.02378,-3.45431,-0.0296695,1.78369,0.478806,0.320428,-0.7,-3.6,0,12091,48.585,30.671,14901.5
212245433,0.63477,2.223,89.0639,0.0105698,-0.144664,0.863597,2.10228,-3.28087,-0.0469696,1.80355,0.561142,0.0666192,-0.7,-3.6,0,12091,48.81,23.56,11499.6
212345785,0.63477,2.223,89.0588,-0.00196561,-0.10946,0.864287,2.16051,-3.14939,-0.0333276,1.33446,0.393533,0.324995,-0.7,-3.6,0,12091,48.81,23.56,11499.6
212446155,0.63477,2.223,89.0558,-0.0138721,-0.0796432,0.864506,2.20761,-3.04381,-0.0322217,1.03003,0.307017,-0.0357557,-0.7,-3.6,0,12091,48.81,23.56,11499.6
212547440,0.63477,2.223,89.0538,-0.0227668,-0.0565654,0.863855,2.23929,-2.96826,-0.0391918,0.711406,0.262534,-0.102705,-0.7,-3.6,0,12091,48.81,23.56,11499.6
212652190,0.63477,2.223,89.0497,-0.0306098,-0.0358591,0.86334,2.27209,-2.89811,-0.0328326,0.592237,0.167375,0.173971,1.3,3.4,0,12091,48.81,23.56,11499.6
212752562,0.63477,2.223,89.0507,-0.0252738,-0.0213996,0.861419,2.29054,-2.86279,-0.0334441,0.275797,0.0625243,0.124708,1.3,3.4,0,12091,48.81,23.56,11499.6
212852980,0.63477,2.223,89.0555,0.139889,-0.0529774,0.856708,2.29373,-2.82458,0.0130154,0.242167,0.466897,0.555108,1.3,3.4,0,12091,48.81,23.56,11499.6
212953345,0.63477,2.223,89.0579,0.30197,-0.0938146,0.845917,2.16285,-2.59099,-0.00395029,0.864741,2.70184,0.030278,1.3,3.4,0,12091,48.81,23.56,11499.6
213053703,0.63477,2.223,89.0564,0.400556,-0.11911,0.835381,1.95802,-2.24945,-0.061301,1.10572,3.61989,1.37056,1.3,3.4,0,12091,48.81,23.56,11499.6
213154098,0.634771,2.223,89.056,0.449492,-0.128242,0.830485,1.67854,-1.8098,-0.0553618,1.21432,4.38622,2.33733,1.3,3.4,0,12091,48.81,23.56,11499.6
213254477,0.634771,2.223,89.0548,0.461134,-0.128773,0.830215,1.37116,-1.3324,-0.0529782,1.25472,4.67153,2.70861,1.3,3.4,0,12091,48.812,25.786,12586.7
213354834,0.634771,2.223,89.0433,0.457248,-0.126611,0.831512,1.06987,-0.863175,-0.0459227,1.29672,4.6126,2.42245,1.3,3.4,0,12091,48.812,25.786,12586.7
213455190,0.634771,2.223,89.0343,0.448679,-0.123067,0.833905,0.770096,-0.401389,-0.0401491,1.34529,4.52897,2.51004,1.3,3.4,0,12091,48.812,25.786,12586.7
213555520,0.634771,2.223,89.0397,0.438961,-0.119032,0.836018,0.469373,0.0470692,-0.0339883,1.22942,4.49091,2.27218,1.3,3.4,0,12091,48.812,25.786,12586.7
213655979,0.634771,2.223,89.0377,0.427105,-0.114675,0.837767,0.184443,0.47367,-0.0251878,1.17455,4.20319,2.16211,1.4,2.7,0,12091,48.812,25.786,12586.7
213756376,0.634771,2.223,89.0324,0.414875,-0.119409,0.83611,-0.0875078,0.885387,-0.0225971,1.14425,4.16564,1.85786,1.4,2.7,0,12091,48.812,25.786,12586.7
213856692,0.634771,2.223,89.0323,0.38192,-0.136478,0.834409,-0.353582,1.28737,-0.0275763,1.23951,3.91314,2.02152,1.4,2.7,0,12091,48.812,25.786,12586.7
213957060,0.634771,2.223,89.0432,0.330744,-0.129496,0.839326,-0.56451,1.67775,-0.00495801,1.33572,3.51612,1.59662,1.4,2.7,0,12091,48.812,25.786,12586.7
214057440,0.634771,2.223,89.0527,0.274521,-0.117805,0.843142,-0.730931,2.00311,-0.00537873,1.32053,3.12534,0.507466,1.4,2.7,0,12091,48.812,25.786,12586.7
214157797,0.63477,2.223,89.0513,0.221068,-0.100669,0.847251,-0.859412,2.26231,-0.00395349,1.00455,2.328,0.84126,1.4,2.7,0,12091,48.812,25.786,12586.7
214258154,0.63477,2.223,89.0581,0.173359,-0.0836401,0.851121,-0.959185,2.47358,0.00721502,0.87059,1.90184,0.366315,1.4,2.7,0,12091,48.623,28.687,13948.5
214358519,0.63477,2.223,89.0729,0.13604,-0.0683163,0.854306,-1.02942,2.6255,-0.000799244,0.656311,1.36231,0.132729,1.4,2.7,0,12091,48.623,28.687,13948.5
214458849,0.63477,2.223,89.0852,0.10786,-0.0569568,0.856335,-1.09226,2.73324,0.000226656,0.339606,1.07485,-0.0810736,1.4,2.7,0,12091,48.623,28.687,13948.5
214559182,0.63477,2.223,89.0998,0.0855234,-0.0489477,0.858276,-1.13735,2.80676,-0.00786833,0.287931,0.745878,-0.223517,1.4,2.7,0,12091,48.623,28.687,13948.5
214659607,0.63477,2.223,89.1043,0.0702898,-0.0415418,0.858936,-1.16222,2.86505,-0.0144557,0.289935,0.586411,-0.0021548,-2,-0.2,0,12091,48.623,28.687,13948.5
214759934,0.63477,2.223,89.1025,0.0499421,-0.0205536,0.858271,-1.18362,2.91149,-0.0210524,0.323954,0.413939,0.296215,-2,-0.2,0,12091,48.623,28.687,13948.5
214860335,0.63477,2.223,89.1104,-0.0803937,0.13831,0.852396,-1.20313,2.87439,0.0410557,-0.746813,-0.286982,0.39081,-2,-0.2,0,12091,48.623,28.687,13948.5
214960691,0.63477,2.223,89.1148,-0.207479,0.257103,0.833587,-1.22483,2.5587,0.0133861,-2.50116,-1.90106,0.301042,-2,-0.2,0,12091,48.623,28.687,13948.5
215061020,0.63477,2.223,89.1131,-0.287371,0.324148,0.817016,-1.22555,2.12095,-0.0384266,-3.09129,-2.5428,1.84504,-2,-0.2,0,12091,48.623,28.687,13948.5
215161297,0.63477,2.223,89.1201,-0.333849,0.359225,0.806587,-1.21233,1.57525,-0.0313262,-3.52541,-3.0965,2.37668,-2,-0.2,0,12091,48.623,28.687,13948.5
215261670,0.63477,2.223,89.1204,-0.351508,0.376281,0.804012,-1.19429,0.999054,-0.0569499,-3.64063,-3.18416,2.48358,-2,-0.2,0,12046,48.659,28.308,13774.4
215362038,0.63477,2.223,89.0959,-0.344049,0.372118,0.808532,-1.18348,0.530253,-0.0739784,-3.71456,-3.25923,2.57313,-2,-0.2,0,12046,48.659,28.308,13774.4
215462400,0.63477,2.223,89.0779,-0.292288,0.326145,0.82693,-1.16492,-0.156166,-0.0902397,-3.59894,-3.0663,2.34691,-2,-0.2,0,12046,48.659,28.308,13774.4
215562757,0.63477,2.223,89.0747,-0.221657,0.263739,0.844432,-1.1373,-0.621351,-0.0887223,-2.87544,-2.73685,1.46109,-2,-0.2,0,12046,48.659,28.308,13774.4
215664481,0.63477,2.223,89.0721,-0.146018,0.200443,0.854858,-1.12538,-0.974959,-0.0811438,-2.21244,-1.89181,0.983165,-1.1,-5,0,12046,48.659,28.308,13774.4
215765013,0.63477,2.223,89.0624,-0.104788,0.130142,0.858764,-1.1354,-1.22074,-0.0555354,-1.52602,-1.09137,0.863888,-1.1,-5,0,12046,48.659,28.308,13774.4
215865450,0.63477,2.223,89.0608,-0.207172,0.0359506,0.853048,-1.09609,-1.39877,-0.0135163,-0.647945,-1.35766,0.649337,-1.1,-5,0,12046,48.659,28.308,13774.4
215965902,0.63477,2.223,89.0682,-0.326875,-0.0269403,0.862962,-0.879389,-1.58399,-0.016007,0.281187,-2.66604,0.591684,-1.1,-5,0,12046,48.659,28.308,13774.4
216066372,0.63477,2.223,89.0653,-0.402166,-0.059897,0.874419,-0.544001,-1.8037,-0.0589085,0.65559,-3.5777,1.35205,-1.1,-5,0,12046,48.659,28.308,13774.4
216167409,0.63477,2.223,89.0441,-0.438655,-0.0727062,0.881188,-0.126999,-2.05029,-0.0566267,0.87085,-3.97378,2.2699,-1.1,-5,0,12046,48.659,28.308,13774.4
216267727,0.63477,2.223,89.0294,-0.44641,-0.070025,0.882063,0.31479,-2.30224,-0.0547106,0.91466,-4.23238,2.19485,-1.1,-5,0,12015,48.564,30.104,14619.7
216368098,0.63477,2.223,89.0212,-0.44091,-0.0612063,0.880128,0.737039,-2.55767,-0.0482303,0.721591,-4.09394,2.23992,-1.1,-5,0,12015,48.564,30.104,14619.7
216468413,0.63477,2.223,89.0103,-0.434081,-0.0502505,0.876527,1.1377,-2.80488,-0.0417964,0.673651,-4.03975,1.96595,-1.1,-5,0,12015,48.564,30.104,14619.7
216568785,0.63477,2.223,89.0025,-0.41482,-0.0380823,0.872412,1.51623,-3.0505,-0.0389307,0.54871,-3.89768,1.89687,-1.1,-5,0,12015,48.564,30.104,14619.7
216669193,0.63477,2.223,88.9994,-0.361833,-0.0281174,0.869119,1.85197,-3.29012,-0.0403754,0.268468,-3.42707,1.79861,-0.6,0.5,0,12015,48.564,30.104,14619.7
216769510,0.63477,2.223,89.002,-0.265487,-0.0240677,0.863252,2.14419,-3.4839,0.00816098,0.298251,-3.03006,1.43889,-0.6,0.5,0,12015,48.564,30.104,14619.7
216869878,0.63477,2.223,89.0155,0.033688,-0.0359319,0.858623,2.32129,-3.60034,0.0713528,0.202148,-1.47387,0.404011,-0.6,0.5,0,12015,48.564,30.104,14619.7
216970194,0.63477,2.223,89.0385,0.307483,-0.0481058,0.852037,2.22228,-3.43811,0.0683454,0.522186,2.35652,-0.107311,-0.6,0.5,0,12015,48.564,30.104,14619.7
217070551,0.63477,2.223,89.0589,0.445323,-0.0518641,0.847017,1.95896,-3.11182,-0.00929829,0.628925,4.11238,1.25597,-0.6,0.5,0,12015,48.564,30.104,14619.7
217170900,0.63477,2.223,89.0857,0.507572,-0.0527679,0.844186,1.59154,-2.7003,-0.0370967,0.583963,5.02311,2.27145,-0.6,0.5,0,12015,48.564,30.104,14619.7
217271263,0.63477,2.223,89.0996,0.516721,-0.0502619,0.84402,1.16843,-2.24604,-0.0423645,0.558809,5.30744,2.92993,-0.6,0.5,0,12015,48.564,30.104,14619.7
217371626,0.634771,2.223,89.0884,0.500351,-0.0470748,0.844821,0.754208,-1.79391,-0.039927,0.521603,5.16701,2.83297,-0.6,0.5,0,12015,48.607,27.149,13196.3
217472889,0.634771,2.223,89.0836,0.440745,-0.0404613,0.846863,0.356995,-1.36755,-0.039689,0.477833,4.84091,2.64305,-0.6,0.5,0,12015,48.607,27.149,13196.3
217582079,0.634771,2.223,89.0968,0.347098,-0.0311089,0.850205,0.0123972,-0.994581,-0.0157781,0.425493,4.27837,1.6946,-0.6,0.5,0,12015,48.607,27.149,13196.3
217682474,0.63477,2.223,89.1064,0.25709,-0.0195036,0.854028,-0.244724,-0.715611,-0.00817733,0.395584,3.22454,0.75068,2.2,-1,0,12015,48.607,27.149,13196.3
217782827,0.63477,2.223,89.1071,0.171972,-0.0233,0.853848,-0.473391,-0.488182,-0.00876235,0.0179402,2.11704,0.643247,2.2,-1,0,12015,48.607,27.149,13196.3
217883155,0.63477,2.223,89.1097,0.0284977,-0.156053,0.859278,-0.572813,-0.330937,0.0566573,0.807208,1.11948,0.234752,2.2,-1,0,12015,48.607,27.149,13196.3
217984836,0.63477,2.223,89.1228,-0.103839,-0.287904,0.878549,-0.42818,-0.170331,-0.021158,2.38527,-0.512939,-0.263523,2.2,-1,0,12015,48.607,27.149,13196.3
218086033,0.63477,2.223,89.1198,-0.176803,-0.366876,0.893402,-0.129156,0.00329447,-0.0753065,3.19527,-1.41148,1.12147,2.2,-1,0,12015,48.607,27.149,13196.3
218186384,0.63477,2.223,89.0951,-0.205401,-0.400214,0.899408,0.273314,0.201228,-0.0925379,3.74754,-1.85853,1.88465,2.2,-1,0,12015,48.607,27.149,13196.3
218286740,0.63477,2.223,89.0657,-0.19444,-0.374169,0.891459,0.716009,0.405178,-0.088148,3.81856,-1.90256,2.3616,2.2,-1,0,12015,48.607,27.149,13196.3
218387095,0.63477,2.223,89.0413,-0.162432,-0.320322,0.88046,1.10389,0.56321,-0.063299,3.30019,-1.82066,1.62181,2.2,-1,0,12015,48.544,28.838,13999.1
218487452,0.63477,2.223,89.0278,-0.125053,-0.262326,0.871884,1.41079,0.689214,-0.0505668,2.62836,-1.41016,1.29896,2.2,-1,0,12015,48.544,28.838,13999.1
218587840,0.63477,2.223,89.0296,-0.0929387,-0.208529,0.866714,1.64407,0.790587,-0.0418925,2.04085,-1.04654,0.737164,2.2,-1,0,12015,48.544,28.838,13999.1
218688293,0.63477,2.223,89.0336,-0.0654456,-0.1634,0.86363,1.82392,0.863496,-0.059599,1.45464,-0.764771,0.779842,0.7,0.3,0,12015,48.544,28.838,13999.1
218788665,0.63477,2.223,89.0498,-0.0299206,-0.105104,0.862217,1.9575,0.92186,0.00241685,1.16037,-0.53621,0.897553,0.7,0.3,0,12015,48.544,28.838,13999.1
218889006,0.634771,2.223,89.0789,0.0880798,0.0504225,0.86198,1.99836,0.948503,0.0653565,-0.0756986,0.208317,-0.134421,0.7,0.3,0,12015,48.544,28.838,13999.1
218990870,0.634771,2.223,89.112,0.1784,0.140416,0.87359,1.81851,0.926088,0.0048792,-1.48225,1.46892,-0.396203,0.7,0.3,0,12015,48.544,28.838,13999.1
219091208,0.634771,2.223,89.1474,0.220176,0.178792,0.881645,1.5483,0.904261,-0.0146734,-1.98647,2.01138,0.440392,0.7,0.3,0,12015,48.544,28.838,13999.1
219191561,0.634771,2.223,89.1961,0.214144,0.1725,0.881211,1.23767,0.886053,-0.0192453,-2.04839,2.22189,0.587546,0.7,0.3,0,12015,48.544,28.838,13999.1
219291909,0.634771,2.223,89.2267,0.180848,0.141929,0.876339,0.946437,0.856148,-0.0088878,-1.9674,1.98013,0.181769,0.7,0.3,0,12015,48.544,28.838,13999.1
219392318,0.634771,2.223,89.2266,0.142887,0.105354,0.870986,0.73368,0.837445,-0.0358991,-1.39942,1.52216,-0.127289,0.7,0.3,0,12001,48.446,30.592,14820.6
219492659,0.634771,2.223,89.2225,0.113166,0.0752288,0.867052,0.561426,0.821306,-0.0649813,-1.1319,1.23061,-0.19276,0.7,0.3,0,12001,48.446,30.592,14820.6
219593001,0.634771,2.223,89.2299,0.0855386,0.050547,0.864497,0.421749,0.803646,-0.0688059,-0.851993,0.943326,0.012843,0.7,0.3,0,12001,48.446,30.592,14820.6
219693412,0.634771,2.223,89.2261,0.063786,0.0233664,0.86237,0.310934,0.792774,-0.0900002,-0.607077,0.702988,-0.30859,0.4,3.3,0,12001,48.446,30.592,14820.6
219795775,0.634771,2.223,89.2001,0.0750296,0.00890372,0.859462,0.236889,0.789045,-0.0980498,-0.285208,0.392702,0.284411,0.4,3.3,0,12001,48.446,30.592,14820.6
219899205,0.634771,2.223,89.1778,0.196439,0.0108037,0.861477,0.148759,0.814624,-0.0880428,-0.177026,1.01068,0.0288794,0.4,3.3,0,12001,48.446,30.592,14820.6
219999556,0.634771,2.223,89.1726,0.315558,0.0185806,0.863717,-0.0530229,0.943689,-0.134869,-0.20092,2.40166,0.361096,0.4,3.3,0,12001,48.446,30.592,14820.6
220099915,0.634771,2.223,89.155,0.391912,0.0280253,0.867642,-0.361082,1.13506,-0.149628,-0.429217,3.30036,1.52149,0.4,3.3,0,12001,48.446,30.592,14820.6
220200361,0.634771,2.223,89.1307,0.42916,0.0270119,0.867917,-0.73856,1.37216,-0.131946,-0.426996,3.81071,2.11659,0.4,3.3,0,12001,48.446,30.592,14820.6
220300738,0.634771,2.223,89.1106,0.414042,0.0216047,0.86699,-1.12321,1.63846,-0.127487,-0.335113,4.06247,2.06254,0.4,3.3,0,12001,48.446,30.592,14820.6
220401100,0.634771,2.223,89.0978,0.354616,0.0144574,0.865432,-1.47969,1.88526,-0.084028,-0.30561,3.67099,2.04292,0.4,3.3,0,12001,48.462,29.956,14517.3
220501441,0.634771,2.223,89.0938,0.289203,0.00609566,0.863958,-1.7578,2.07462,-0.049807,-0.257724,2.93305,1.22113,0.4,3.3,0,12001,48.462,29.956,14517.3
220602919,0.634771,2.223,89.1039,0.227845,-0.00453381,0.861646,-1.97286,2.22428,-0.0235465,-0.200416,2.31648,0.730929,0.4,3.3,0,12001,48.462,29.956,14517.3
220707737,0.634771,2.223,89.1157,0.177064,-0.0143522,0.85933,-2.15373,2.35774,0.0030561,-0.0195063,1.61392,0.236442,-1.5,3.1,0,12001,48.462,29.956,14517.3
220808116,0.63477,2.223,89.1234,0.135768,-0.000609368,0.858552,-2.25058,2.45117,0.000956554,0.206152,1.16821,0.616423,-1.5,3.1,0,12001,48.462,29.956,14517.3
220908448,0.63477,2.223,89.1365,0.0773716,0.142561,0.860024,-2.35126,2.48252,0.0683092,-0.802123,0.729643,0.228337,-1.5,3.1,0,12001,48.462,29.956,14517.3
221008822,0.63477,2.223,89.1619,0.0436848,0.244935,0.863504,-2.50375,2.34225,0.0063805,-2.22029,0.145284,-0.410695,-1.5,3.1,0,12001,48.462,29.956,14517.3
221109180,0.63477,2.223,89.1789,0.0358465,0.278124,0.866561,-2.69397,2.13437,-0.0355712,-2.73093,-0.00133079,0.496964,-1.5,3.1,0,12001,48.462,29.956,14517.3
221209571,0.63477,2.223,89.1881,0.0330387,0.266296,0.86905,-2.89073,1.92307,-0.0502064,-2.75653,0.100996,0.33925,-1.5,3.1,0,12001,48.462,29.956,14517.3
221309901,0.63477,2.223,89.1978,0.031316,0.23183,0.869771,-3.06218,1.73151,-0.072138,-2.4241,0.0831812,0.313975,-1.5,3.1,0,12001,48.462,29.956,14517.3
221410272,0.63477,2.223,89.202,0.0306074,0.19003,0.868966,-3.19083,1.57274,-0.0741577,-1.90951,-0.0241877,0.217864,-1.5,3.1,0,12001,48.588,27.028,13132.4
221510641,0.63477,2.223,89.2029,0.0302507,0.156154,0.868539,-3.29113,1.44147,-0.0865853,-1.53475,-0.0732985,0.0254247,-1.5,3.1,0,12001,48.588,27.028,13132.4
221610981,0.63477,2.223,89.1996,0.031395,0.123844,0.867242,-3.37139,1.34077,-0.0857735,-1.14787,-0.0207559,0.161792,-1.5,3.1,0,12001,48.588,27.028,13132.4
221711482,0.63477,2.223,89.1948,0.0367156,0.0990952,0.866609,-3.42757,1.24872,-0.0898017,-0.988679,-0.0771156,0.119269,-3.3,0.9,0,12001,48.588,27.028,13132.4
221811865,0.63477,2.223,89.187,0.0211969,0.0935924,0.862785,-3.47995,1.19376,-0.0800826,-0.625151,0.183761,0.420853,-3.3,0.9,0,12001,48.588,27.028,13132.4
221912290,0.63477,2.223,89.1744,-0.106674,0.175376,0.847849,-3.50863,1.09992,-0.0432229,-1.00518,-0.489904,0.379804,-3.3,0.9,0,12001,48.588,27.028,13132.4
222012603,0.63477,2.223,89.171,-0.233914,0.24828,0.830518,-3.48016,0.817474,-0.078476,-1.89302,-2.05873,0.506584,-3.3,0.9,0,12001,48.588,27.028,13132.4
222112967,0.63477,2.223,89.1686,-0.311047,0.294506,0.81953,-3.41141,0.413422,-0.118475,-2.37582,-2.91476,1.54046,-3.3,0.9,0,12001,48.588,27.028,13132.4
222213277,0.63477,2.223,89.1597,-0.322737,0.292926,0.826767,-3.32181,-0.0763493,-0.123102,-2.72717,-3.32379,2.13662,-3.3,0.9,0,12001,48.588,27.028,13132.4
222313616,0.63477,2.223,89.1504,-0.268839,0.242313,0.847054,-3.22344,-0.541005,-0.084185,-2.41662,-3.1137,2.04306,-3.3,0.9,0,12001,48.588,27.028,13132.4
222417456,0.63477,2.223,89.1388,-0.205116,0.190677,0.859762,-3.14346,-0.873332,-0.0999826,-1.82691,-2.47066,0.760443,-3.3,0.9,0,12001,48.588,27.028,13132.4
222517818,0.63477,2.223,89.1319,-0.146792,0.148782,0.864453,-3.0751,-1.12935,-0.077939,-1.30505,-1.90716,0.93711,-3.3,0.9,0,12001,48.521,29.915,14515.1
222618220,0.63477,2.223,89.1308,-0.097081,0.124341,0.864935,-3.01172,-1.31319,-0.0552593,-0.82097,-1.41356,0.553994,-3.3,0.9,0,12001,48.521,29.915,14515.1
222718641,0.63477,2.223,89.1358,-0.0570729,0.113705,0.863695,-2.98493,-1.45601,-0.0458314,-0.847142,-0.916674,0.134118,-2.7,1.5,0,12001,48.521,29.915,14515.1
222819005,0.634769,2.223,89.1358,-0.0187426,0.0868033,0.865141,-2.9824,-1.57577,-0.0549447,-0.871242,-0.695893,0.531142,-2.7,1.5,0,12001,48.521,29.915,14515.1
222919366,0.634769,2.223,89.1377,0.0342486,0.0322601,0.866038,-2.98061,-1.62735,-0.0162704,-0.215815,-0.196821,0.0550711,-2.7,1.5,0,12001,48.521,29.915,14515.1
223019665,0.634769,2.223,89.1497,0.0786887,-0.00469113,0.862413,-2.97865,-1.59493,-0.0447939,0.316552,0.375808,-0.195959,-2.7,1.5,0,12001,48.521,29.915,14515.1
223120059,0.634769,2.223,89.1604,0.0952097,-0.0188297,0.859461,-2.99093,-1.50499,-0.047554,0.626581,0.728714,0.204195,-2.7,1.5,0,12001,48.521,29.915,14515.1
223220413,0.634769,2.223,89.1609,0.0928984,-0.0111561,0.858762,-2.99799,-1.41377,-0.0459486,0.600787,0.706626,-0.0663908,-2.7,1.5,0,12001,48.521,29.915,14515.1
223320768,0.634769,2.223,89.1577,0.0819398,0.00363778,0.858583,-3.01119,-1.3339,-0.056122,0.471317,0.605965,0.0586994,-2.7,1.5,0,12001,48.521,29.915,14515.1
223421104,0.634769,2.223,89.1588,0.0687343,0.0183705,0.859162,-3.03342,-1.27457,-0.0682163,0.278572,0.576776,-0.164985,-2.7,1.5,0,12001,48.521,29.915,14515.1
223521451,0.634769,2.223,89.1575,0.0543054,0.0242802,0.859916,-3.04521,-1.22911,-0.0602829,0.233889,0.366562,0.148026,-2.7,1.5,0,12001,48.649,24.027,11688.9
223621759,0.634769,2.223,89.155,0.0443614,0.0263623,0.860438,-3.05095,-1.19678,-0.0584517,0.101181,0.22573,0.0395771,-2.7,1.5,0,12001,48.649,24.027,11688.9
223722123,0.634769,2.223,89.1544,0.0389657,0.0228667,0.860308,-3.05801,-1.17659,-0.0604873,0.0669064,0.111922,-0.0549859,1.7,3.3,0,12001,48.649,24.027,11688.9
223822552,0.634769,2.223,89.1525,0.0384205,0.012163,0.861645,-3.05769,-1.14522,-0.0581244,0.226436,0.149367,0.251323,1.7,3.3,0,12001,48.649,24.027,11688.9
223922949,0.634769,2.223,89.1512,0.0787153,-0.126465,0.859862,-3.05316,-1.10825,-0.0189958,0.579959,0.207925,0.251888,1.7,3.3,0,12001,48.649,24.027,11688.9
224023322,0.634769,2.223,89.1622,0.129519,-0.263988,0.84718,-2.97361,-0.891732,-0.0477601,2.3701,0.859803,-0.240262,1.7,3.3,0,12001,48.649,24.027,11688.9
224123680,0.634769,2.223,89.1727,0.16935,-0.353978,0.832314,-2.84309,-0.553455,-0.107058,3.32245,1.1331,1.20446,1.7,3.3,0,12001,48.649,24.027,11688.9
224224060,0.634769,2.223,89.1658,0.186654,-0.394701,0.822352,-2.68864,-0.126978,-0.120446,3.94144,1.42963,1.59724,1.7,3.3,0,12001,48.649,24.027,11688.9
224324420,0.634769,2.223,89.1512,0.195978,-0.40116,0.818573,-2.50346,0.326091,-0.128969,4.08833,1.26294,2.36632,1.7,3.3,0,12001,48.649,24.027,11688.9
224424767,0.634769,2.223,89.1302,0.207239,-0.389974,0.818772,-2.33673,0.791234,-0.11577,4.09534,1.53748,2.14409,1.7,3.3,0,12001,48.649,24.027,11688.9
224525116,0.634769,2.223,89.1137,0.219806,-0.377139,0.81921,-2.19507,1.2393,-0.104118,3.84423,1.53382,2.0201,1.7,3.3,0,12001,48.661,24.027,11691.8
224625467,0.634769,2.223,89.0998,0.222982,-0.343977,0.823664,-2.06898,1.69232,-0.0932254,3.70685,1.70794,2.12577,1.7,3.3,0,12001,48.661,24.027,11691.8
224725855,0.634769,2.223,89.0945,0.205124,-0.288678,0.831997,-1.97532,2.11103,-0.0643151,3.27315,1.68356,1.59194,4.2,-0.1,0,12001,48.661,24.027,11691.8
224826222,0.634769,2.223,89.1009,0.162618,-0.237751,0.844094,-1.91135,2.4655,-0.0391925,2.67639,1.53587,1.33727,4.2,-0.1,0,12001,48.661,24.027,11691.8
224926553,0.634769,2.223,89.1217,-0.0190571,-0.230344,0.872994,-1.85686,2.75504,0.0646512,2.29795,0.949024,0.79476,4.2,-0.1,0,12001,48.661,24.027,11691.8
225026919,0.634769,2.223,89.1585,-0.172648,-0.242876,0.889045,-1.63264,2.8641,0.0404828,2.31925,-1.28827,-0.185143,4.2,-0.1,0,12001,48.661,24.027,11691.8
225127244,0.634769,2.223,89.1881,-0.253233,-0.253809,0.894,-1.31553,2.90225,-0.0196084,2.25202,-2.2274,0.546342,4.2,-0.1,0,12001,48.661,24.027,11691.8
225227497,0.634769,2.223,89.204,-0.283496,-0.25669,0.891682,-0.944649,2.92701,-0.0579085,2.52035,-2.69272,0.875847,4.2,-0.1,0,12001,48.661,24.027,11691.8
225327775,0.634769,2.223,89.2088,-0.29138,-0.256855,0.888064,-0.478104,2.93012,-0.0834971,2.40215,-2.8197,1.35745,4.2,-0.1,0,12001,48.661,24.027,11691.8
225428137,0.634768,2.223,89.2011,-0.287756,-0.251318,0.882952,-0.177194,2.93137,-0.0946574,2.34429,-2.73663,1.1215,4.2,-0.1,0,12001,48.661,24.027,11691.8
225528462,0.634768,2.223,89.1928,-0.277198,-0.251885,0.879382,0.27407,2.90582,-0.0932492,2.17445,-2.73757,1.34452,4.2,-0.1,0,12001,48.823,23.253,11352.8
225628804,0.634769,2.223,89.1794,-0.256601,-0.263911,0.880273,0.63445,2.90227,-0.104093,2.25648,-2.53816,1.19127,4.2,-0.1,0,12001,48.823,23.253,11352.8
225729184,0.634769,2.223,89.1585,-0.223034,-0.260714,0.878228,0.998716,2.92854,-0.108685,2.474,-2.34892,1.18876,2.6,2.5,0,12001,48.823,23.253,11352.8
225829550,0.634769,2.223,89.1403,-0.160096,-0.229261,0.870342,1.3261,2.96105,-0.0881869,2.18464,-1.98821,1.52222,2.6,2.5,0,12001,48.823,23.253,11352.8
225929911,0.634769,2.223,89.1238,0.0748461,-0.089567,0.844999,1.53566,3.02243,-0.00847959,1.5327,-0.770256,0.934691,2.6,2.5,0,12001,48.823,23.253,11352.8
226030280,0.634769,2.223,89.1176,0.272036,0.0457683,0.860602,1.38142,3.1239,-0.0180228,-0.318268,2.27761,-0.724571,2.6,2.5,0,12001,48.823,23.253,11352.8
226131072,0.634769,2.223,89.1144,0.351916,0.0979124,0.87828,1.06168,3.23305,-0.126076,-1.18586,3.20946,0.685198,2.6,2.5,0,12001,48.823,23.253,11352.8
226231485,0.634769,2.223,89.1174,0.346171,0.0945468,0.881332,0.681018,3.36057,-0.129704,-1.33629,3.43464,1.50548,2.6,2.5,0,12001,48.823,23.253,11352.8
226331826,0.634769,2.223,89.1254,0.287669,0.0643358,0.874599,0.355478,3.46696,-0.11146,-1.11348,2.9545,0.941053,2.6,2.5,0,12001,48.823,23.253,11352.8
226432184,0.634769,2.223,89.1436,0.224481,0.0316882,0.866772,0.123868,3.54728,-0.09256,-0.760927,2.18774,0.491783,2.6,2.5,0,12001,48.823,23.253,11352.8
226532484,0.634769,2.223,89.1584,0.168451,0.00115313,0.861458,-0.0513085,3.60294,-0.0789985,-0.400381,1.59259,0.219945,2.6,2.5,0,12001,48.823,23.418,11433.4
226632818,0.634769,2.223,89.1586,0.128811,-0.0214417,0.858791,-0.164268,3.6766,-0.0602204,0.0504284,1.23757,0.184064,2.6,2.5,0,12001,48.823,23.418,11433.4
226733291,0.634769,2.223,89.1588,0.0975343,-0.0367182,0.856986,-0.220636,3.73379,-0.0591955,0.268283,0.720616,0.264238,0,3.6,0,12001,48.823,23.418,11433.4
226833565,0.634769,2.223,89.1605,0.0841581,-0.0187802,0.858557,-0.255595,3.78887,-0.0419517,0.435157,0.448442,0.445397,0,3.6,0,12001,48.823,23.418,11433.4
226934550,0.634769,2.223,89.1562,0.115253,0.131312,0.863119,-0.309839,3.80658,0.00314368,-0.468366,0.500818,-0.189579,0,3.6,0,12001,48.823,23.418,11433.4
227035798,0.634769,2.223,89.1501,0.164216,0.270209,0.879242,-0.517063,3.70684,-0.0698821,-2.14417,0.921957,-0.00664222,0,3.6,0,12001,48.823,23.418,11433.4
227136245,0.634769,2.223,89.1415,0.19718,0.340716,0.893527,-0.847493,3.54461,-0.0978782,-3.00612,1.22656,1.54599,0,3.6,0,12001,48.823,23.418,11433.4
227240114,0.634769,2.223,89.1292,0.201274,0.339808,0.895603,-1.24603,3.35061,-0.097702,-3.51567,1.4975,1.74606,0,3.6,0,12001,48.823,23.418,11433.4
227340485,0.634769,2.223,89.1207,0.18009,0.294015,0.888414,-1.61175,3.18934,-0.0799581,-3.11591,1.47977,1.37944,0,3.6,0,12001,48.823,23.418,11433.4
227442054,0.634769,2.223,89.1158,0.155404,0.238417,0.8792,-1.90644,3.05946,-0.062447,-2.52441,1.19663,1.10927,0,3.6,0,12001,48.823,23.418,11433.4
227546823,0.634768,2.223,89.1142,0.134957,0.189301,0.87279,-2.13367,2.95752,-0.0520206,-2.00821,0.927649,0.666006,0,3.6,0,12001,48.823,23.418,11433.4
227647191,0.634768,2.223,89.1194,0.121674,0.151289,0.868052,-2.32034,2.88181,-0.0485653,-1.5709,0.772938,0.550388,0,3.6,0,12001,48.823,23.418,11433.4
227747539,0.634768,2.223,89.1221,0.108002,0.121746,0.864748,-2.47403,2.83324,-0.0400815,-1.21008,0.739865,0.355975,0.6,-3.8,0,12001,48.823,23.418,11433.4
227847795,0.634768,2.223,89.123,0.0751069,0.0958944,0.863967,-2.59803,2.79141,-0.0243518,-0.930748,0.562841,0.47967,0.6,-3.8,0,12001,48.823,23.418,11433.4
227948069,0.634768,2.223,89.1244,-0.126191,0.0398832,0.85451,-2.67621,2.74769,0.0347667,-0.682673,-0.0083652,0.574299,0.6,-3.8,0,12001,48.823,23.418,11433.4
228048348,0.634768,2.223,89.1244,-0.310498,0.00466939,0.857357,-2.50326,2.58603,0.0641593,0.0129889,-2.65326,0.271163,0.6,-3.8,0,12001,48.823,23.418,11433.4
228148639,0.634768,2.223,89.1316,-0.415164,0.00154485,0.858769,-2.21623,2.36139,-0.0419314,0.228253,-3.81362,0.548527,0.6,-3.8,0,11956,48.728,25.537,12443.7
228249012,0.634768,2.223,89.1114,-0.464862,0.00735869,0.858124,-1.85107,2.0487,-0.0872777,0.0600613,-4.54971,1.73248,0.6,-3.8,0,11956,48.728,25.537,12443.7
228349379,0.634768,2.223,89.0856,-0.479889,0.0138885,0.855898,-1.46314,1.69571,-0.125092,-0.0487001,-4.6569,2.31789,0.6,-3.8,0,11956,48.728,25.537,12443.7
228450510,0.634768,2.223,89.0496,-0.490162,0.0178479,0.853398,-1.07175,1.34165,-0.143061,-0.0303133,-4.60078,2.464,0.6,-3.8,0,11956,48.728,25.537,12443.7
228551953,0.634768,2.223,89.0083,-0.490663,0.0112789,0.854759,-0.58805,0.87519,-0.148445,-0.215408,-4.83399,2.74611,0.6,-3.8,0,11956,48.728,25.537,12443.7
228652387,0.634768,2.223,88.9695,-0.477527,0.000573784,0.857617,-0.15765,0.502707,-0.135018,0.00269783,-4.72884,2.89949,0.6,-3.8,0,11956,48.728,25.537,12443.7
228754161,0.634768,2.223,88.9469,-0.451104,-0.00795338,0.860797,0.278205,0.142646,-0.104541,0.0945243,-4.54385,2.99105,1.9,-3.1,0,11956,48.728,25.537,12443.7
228854583,0.634768,2.223,88.9315,-0.415494,-0.0318938,0.866983,0.677236,-0.187548,-0.0630509,-0.0702438,-4.31488,2.42963,1.9,-3.1,0,11956,48.728,25.537,12443.7
228956512,0.634768,2.223,88.9303,-0.365275,-0.123761,0.878114,1.06958,-0.444183,-0.00873004,0.637814,-3.86939,2.10332,1.9,-3.1,0,11956,48.728,25.537,12443.7
229056866,0.634768,2.223,88.9386,-0.311088,-0.19671,0.890092,1.47192,-0.567535,0.013462,1.62541,-3.28152,1.54916,1.9,-3.1,0,11956,48.646,26.484,12883.4
229157214,0.634768,2.223,88.9614,-0.249213,-0.218367,0.891997,1.86161,-0.591087,0.0369389,2.17722,-2.6201,1.31157,1.9,-3.1,0,11956,48.646,26.484,12883.4
229257606,0.634768,2.223,88.9865,-0.195779,-0.206086,0.888317,2.18487,-0.565958,0.0517281,2.22295,-2.0201,0.696213,1.9,-3.1,0,11956,48.646,26.484,12883.4
229357953,0.634768,2.223,89.0044,-0.152718,-0.178964,0.88283,2.44521,-0.522002,0.0639127,1.85652,-1.47,0.60834,1.9,-3.1,0,11956,48.646,26.484,12883.4
229458326,0.634768,2.223,89.0152,-0.128173,-0.14981,0.877673,2.64687,-0.477433,0.0594274,1.55739,-1.13546,0.362585,1.9,-3.1,0,11956,48.646,26.484,12883.4
229558667,0.634768,2.223,89.0307,-0.113488,-0.119494,0.872922,2.80472,-0.434264,0.0545089,1.24233,-0.863247,0.139618,1.9,-3.1,0,11956,48.646,26.484,12883.4
229658997,0.634768,2.223,89.0385,-0.103128,-0.0919025,0.869079,2.93377,-0.407192,0.0460987,0.937059,-0.761888,0.17287,1.9,-3.1,0,11956,48.646,26.484,12883.4
229759412,0.634769,2.223,89.0425,-0.0958959,-0.069822,0.866102,3.03059,-0.403464,0.0329161,0.635451,-0.801699,-0.169615,0.5,1.5,0,11956,48.646,26.484,12883.4
229859745,0.634769,2.223,89.0442,-0.0587937,-0.043288,0.860139,3.1115,-0.396666,0.025582,0.551534,-0.715686,0.487019,0.5,1.5,0,11956,48.646,26.484,12883.4
229960101,0.634769,2.223,89.0562,0.161428,0.0370851,0.861762,3.13839,-0.381902,0.0815241,0.101817,0.241886,-0.0259082,0.5,1.5,0,11956,48.646,26.484,12883.4
230060450,0.634769,2.223,89.0655,0.351476,0.0961402,0.876849,2.88483,-0.273572,0.00240059,-0.946004,2.83851,-0.22147,0.5,1.5,0,11956,48.646,26.484,12883.4
230160812,0.634769,2.223,89.0612,0.455903,0.129404,0.890868,2.48189,-0.0901586,-0.0745058,-1.19014,3.99447,1.59802,0.5,1.5,0,11956,48.727,25.692,12518.9
230261132,0.634769,2.223,89.0568,0.493638,0.145736,0.89886,1.959,0.139339,-0.0785517,-1.44528,4.56996,2.80928,0.5,1.5,0,11956,48.727,25.692,12518.9
230361486,0.634769,2.223,89.0552,0.493331,0.148083,0.900002,1.406,0.362177,-0.0684021,-1.58824,4.70386,2.88197,0.5,1.5,0,11956,48.727,25.692,12518.9
230461806,0.634769,2.223,89.0522,0.45576,0.132641,0.892505,0.871553,0.577781,-0.0469346,-1.52464,4.4924,2.79128,0.5,1.5,0,11956,48.727,25.692,12518.9
230562161,0.634769,2.223,89.0416,0.379564,0.101561,0.879177,0.401533,0.780863,-0.0155355,-1.2358,3.97995,2.2616,0.5,1.5,0,11956,48.727,25.692,12518.9
230662502,0.634769,2.223,89.0336,0.299283,0.0677604,0.867941,0.0314404,0.943372,0.00795103,-0.971509,3.26478,1.20309,0.5,1.5,0,11956,48.727,25.692,12518.9
230762882,0.634769,2.223,89.0278,0.227912,0.0389367,0.861476,-0.23804,1.08224,0.0140298,-0.547799,2.48225,0.691446,1.7,4.4,0,11956,48.727,25.692,12518.9
230863233,0.634769,2.223,89.024,0.177513,0.0118313,0.858341,-0.422252,1.19231,0.0152264,-0.243778,1.74189,0.421579,1.7,4.4,0,11956,48.727,25.692,12518.9
230963532,0.634769,2.223,89.0205,0.21981,-0.0487735,0.854948,-0.565739,1.29065,0.0129807,0.0854165,1.52604,0.0059458,1.7,4.4,0,11956,48.727,25.692,12518.9
231063892,0.634769,2.223,89.0116,0.302028,-0.102148,0.843594,-0.714911,1.48195,-0.0482774,0.656936,2.19479,0.404596,1.7,4.4,0,11956,48.727,25.692,12518.9
231164312,0.634769,2.223,89.0031,0.361958,-0.135734,0.83258,-0.901402,1.77635,-0.0629743,1.11259,2.93432,1.25482,1.7,4.4,0,11911,48.694,28.939,14091.6
231264605,0.634769,2.223,88.9959,0.390027,-0.146217,0.828051,-1.09763,2.13175,-0.0617022,1.35495,3.19923,1.7067,1.7,4.4,0,11911,48.694,28.939,14091.6
231364886,0.634769,2.223,88.9828,0.402762,-0.145283,0.827179,-1.30106,2.50832,-0.0374193,1.41353,3.44355,1.80554,1.7,4.4,0,11911,48.694,28.939,14091.6
231465131,0.634769,2.223,88.9715,0.380037,-0.133921,0.830196,-1.50512,2.88467,-0.0382966,1.3774,3.36107,1.8953,1.7,4.4,0,11911,48.694,28.939,14091.6
231565385,0.634769,2.223,88.9732,0.332106,-0.114021,0.837096,-1.68526,3.22431,-0.00697028,1.21181,2.95702,1.8714,1.7,4.4,0,11911,48.694,28.939,14091.6
231665758,0.634768,2.223,88.9738,0.281647,-0.0893815,0.844117,-1.83426,3.49017,0.00736921,0.861413,2.57006,0.904053,1.7,4.4,0,11911,48.694,28.939,14091.6
231766152,0.634768,2.223,88.9763,0.234966,-0.0691484,0.849428,-1.95883,3.69892,0.0196736,0.648512,2.07889,0.826946,-1.9,2.7,0,11911,48.694,28.939,14091.6
231866503,0.634768,2.223,88.9829,0.189439,-0.0398708,0.8521,-2.0541,3.85364,0.0172098,0.391862,1.53834,0.282882,-1.9,2.7,0,11911,48.694,28.939,14091.6
231966907,0.634768,2.223,89.004,0.0588105,0.140884,0.854462,-2.12629,3.97726,0.10623,0.159869,1.00799,1.24429,-1.9,2.7,0,11911,48.694,28.939,14091.6
232067276,0.634768,2.223,89.0343,-0.0691531,0.286724,0.844099,-2.23058,3.78177,0.156589,-2.32244,-0.680516,0.341599,-1.9,2.7,0,11911,48.694,28.939,14091.6
232167618,0.634768,2.223,89.0507,-0.136563,0.374944,0.836202,-2.31415,3.44909,0.0910948,-3.28249,-1.61752,0.395749,-1.9,2.7,0,11911,48.613,27.108,13178
232267989,0.634768,2.223,89.0625,-0.145977,0.415879,0.836103,-2.4223,3.03698,0.0340334,-3.67819,-1.66065,1.59476,-1.9,2.7,0,11911,48.613,27.108,13178
232368373,0.634768,2.223,89.0894,-0.136865,0.43023,0.841019,-2.55889,2.59483,-0.00594737,-4.15736,-1.72406,1.26938,-1.9,2.7,0,11911,48.613,27.108,13178
232468712,0.634768,2.223,89.0948,-0.111886,0.407272,0.849888,-2.71179,2.15407,-0.0396681,-3.98234,-1.51101,1.66151,-1.9,2.7,0,11911,48.613,27.108,13178
232569043,0.634768,2.223,89.0642,-0.0838244,0.356157,0.857892,-2.86306,1.74043,-0.0624089,-3.73568,-1.29883,1.52659,-1.9,2.7,0,11911,48.613,27.108,13178
232669416,0.634768,2.223,89.0437,-0.0568403,0.286007,0.863848,-2.99105,1.38984,-0.06136,-3.15941,-1.09035,1.09109,-1.9,2.7,0,11911,48.613,27.108,13178
232769824,0.634768,2.223,89.0411,-0.0326034,0.218117,0.866815,-3.08314,1.12058,-0.0665611,-2.41205,-0.830396,0.65766,-3.6,-4.7,0,11911,48.613,27.108,13178
232870994,0.634768,2.223,89.0368,-0.0274586,0.16519,0.867115,-3.14696,0.883168,-0.035849,-1.48759,-0.589778,1.11873,-3.6,-4.7,0,11911,48.613,27.108,13178
232974861,0.634768,2.223,89.0262,-0.177422,0.126275,0.848274,-3.14305,0.703946,0.0421631,-1.08907,-1.20144,0.710138,-3.6,-4.7,0,11911,48.613,27.108,13178
233075200,0.634768,2.223,89.024,-0.316963,0.106296,0.842991,-2.98523,0.437153,0.0127271,-0.84686,-2.80881,0.637269,-3.6,-4.7,0,11911,48.613,27.108,13178
233175624,0.634768,2.223,89.0204,-0.403816,0.0990585,0.845488,-2.72061,0.0958627,-0.0381919,-0.689283,-3.87404,1.49691,-3.6,-4.7,0,11911,48.589,28.258,13730.3
233275988,0.634768,2.223,89.0121,-0.438834,0.0970462,0.848619,-2.38256,-0.291285,-0.0556151,-0.584149,-4.55312,1.9057,-3.6,-4.7,0,11911,48.589,28.258,13730.3
233376406,0.634768,2.223,88.9953,-0.450426,0.0958953,0.850577,-2.04291,-0.69695,-0.0583408,-0.683045,-4.43283,2.45884,-3.6,-4.7,0,11911,48.589,28.258,13730.3
233476763,0.634768,2.223,88.9807,-0.447954,0.095388,0.852035,-1.68367,-1.09977,-0.047704,-0.581638,-4.61914,2.25441,-3.6,-4.7,0,11911,48.589,28.258,13730.3
233577128,0.634768,2.223,88.9629,-0.437416,0.0992676,0.851558,-1.34012,-1.485,-0.0682889,-0.571699,-4.49852,2.0577,-3.6,-4.7,0,11911,48.589,28.258,13730.3
233677495,0.634768,2.223,88.9526,-0.422926,0.109852,0.849191,-1.00279,-1.86685,-0.0507323,-0.606132,-4.20779,2.46328,-3.6,-4.7,0,11911,48.589,28.258,13730.3
233777871,0.634768,2.223,88.9571,-0.401581,0.124329,0.845204,-0.701766,-2.24494,-0.0228299,-0.794619,-4.05455,1.96769,3.4,2.1,0,11911,48.589,28.258,13730.3
233878241,0.634768,2.223,88.9625,-0.355625,0.114793,0.848524,-0.44317,-2.60512,-0.0202474,-1.0526,-3.78793,1.55918,3.4,2.1,0,11911,48.589,28.258,13730.3
233978581,0.634768,2.223,88.9713,-0.16654,-0.042224,0.861434,-0.198055,-2.93065,0.0847319,-0.640593,-3.2231,1.36258,3.4,2.1,0,11911,48.589,28.258,13730.3
234078929,0.634768,2.223,88.9934,0.100452,-0.247642,0.843017,-0.0380682,-2.88438,0.098062,1.74477,-0.353809,0.0734527,3.4,2.1,0,11911,48.589,28.258,13730.3
234179272,0.634768,2.223,89.0129,0.267524,-0.346314,0.814732,0.0439923,-2.51243,0.0105831,3.51605,2.1091,0.305576,3.4,2.1,0,11880,48.69,25.861,12591.7
234279648,0.634768,2.223,89.0182,0.347535,-0.384616,0.797405,0.0903205,-2.00276,-0.066502,3.77735,2.82231,2.36184,3.4,2.1,0,11880,48.69,25.861,12591.7
234379986,0.634768,2.223,89.0153,0.365997,-0.392166,0.794888,0.102237,-1.38732,-0.0659224,3.92086,3.33257,3.17725,3.4,2.1,0,11880,48.69,25.861,12591.7
234480354,0.634768,2.223,89.0132,0.353247,-0.385837,0.79928,0.117371,-0.760926,-0.0440568,4.06337,3.28995,3.10782,3.4,2.1,0,11880,48.69,25.861,12591.7
234580763,0.634768,2.223,88.996,0.330741,-0.375713,0.804299,0.145435,-0.160007,-0.029831,3.95623,3.06909,2.90987,3.4,2.1,0,11880,48.69,25.861,12591.7
234681090,0.634768,2.223,88.9844,0.313122,-0.367358,0.808563,0.170911,0.410232,-0.0231366,3.70155,2.91688,2.66972,3.4,2.1,0,11880,48.69,25.861,12591.7
234781490,0.634768,2.223,88.9909,0.298078,-0.358662,0.811659,0.199214,0.954839,-0.0176966,3.59327,2.75206,2.48664,-2.8,-4.7,0,11880,48.69,25.861,12591.7
234881832,0.634768,2.223,88.9948,0.258865,-0.32551,0.822038,0.239562,1.47734,0.00141524,3.67032,2.55658,2.16384,-2.8,-4.7,0,11880,48.69,25.861,12591.7
234982191,0.634768,2.223,88.9982,0.0762642,-0.13564,0.862763,0.274521,1.92898,0.0693986,2.8045,2.01893,1.77157,-2.8,-4.7,0,11880,48.69,25.861,12591.7
235082539,0.634768,2.223,89.0164,-0.145285,0.106394,0.855368,0.305193,1.996,0.122435,0.0365782,-0.356801,-0.106061,-2.8,-4.7,0,11880,48.69,25.861,12591.7
235182897,0.634768,2.223,89.0476,-0.277846,0.235052,0.825747,0.337156,1.73851,0.0564207,-2.03832,-2.27004,0.262409,-2.8,-4.7,0,11880,48.69,25.861,12591.7
235283221,0.634768,2.223,89.0764,-0.345741,0.294244,0.804327,0.379802,1.34176,0.0167863,-2.80248,-2.98098,1.53789,-2.8,-4.7,0,11880,48.607,29.14,14164.1
235383558,0.634768,2.223,89.1356,-0.375675,0.31556,0.794335,0.432343,0.869585,-0.00522274,-3.18645,-3.47926,1.65388,-2.8,-4.7,0,11880,48.607,29.14,14164.1
235483901,0.634768,2.223,89.1712,-0.388395,0.314071,0.792121,0.495445,0.376639,-0.0298032,-3.09979,-3.57477,1.90881,-2.8,-4.7,0,11880,48.607,29.14,14164.1
235584305,0.634768,2.223,89.1497,-0.384833,0.302871,0.79486,0.570933,-0.127638,-0.0535057,-2.97854,-3.69279,2.04114,-2.8,-4.7,0,11880,48.607,29.14,14164.1
235684617,0.634768,2.223,89.1325,-0.376328,0.293136,0.797347,0.651382,-0.62264,-0.0634103,-2.86056,-3.50713,2.2245,-2.8,-4.7,0,11880,48.607,29.14,14164.1
235785042,0.634768,2.223,89.1359,-0.365472,0.280684,0.801544,0.738623,-1.11882,-0.0529283,-2.70767,-3.48494,2.25227,-3.1,0.7,0,11880,48.607,29.14,14164.1
235885403,0.634768,2.223,89.1331,-0.323871,0.272764,0.80496,0.833052,-1.59706,-0.0500675,-2.45982,-3.40865,2.08849,-3.1,0.7,0,11880,48.607,29.14,14164.1
235985771,0.634768,2.223,89.116,-0.109396,0.290204,0.838178,0.877107,-2.07538,0.0999083,-2.47403,-2.67822,2.85258,-3.1,0.7,0,11880,48.607,29.14,14164.1
236086101,0.634768,2.223,89.1118,0.167152,0.290125,0.887379,0.682629,-2.33353,0.0710952,-3.4177,0.465471,-0.722965,-3.1,0.7,0,11880,48.607,29.14,14164.1
236186477,0.634768,2.223,89.1019,0.333315,0.274476,0.905269,0.36438,-2.37882,-0.104369,-2.36269,2.46278,0.626709,-3.1,0.7,0,11880,48.607,29.14,14164.1
236286821,0.634768,2.223,89.0844,0.408445,0.265469,0.910154,-0.116145,-2.35239,-0.132694,-2.45382,3.53898,2.3935,-3.1,0.7,0,11880,48.519,31.759,15409.1
236387154,0.634768,2.223,89.0819,0.42105,0.259017,0.907597,-0.653148,-2.27035,-0.125567,-2.38622,4.09796,2.54637,-3.1,0.7,0,11880,48.519,31.759,15409.1
236487521,0.634768,2.223,89.0688,0.369559,0.231892,0.893404,-1.17268,-2.17767,-0.100415,-2.17618,3.92957,2.55381,-3.1,0.7,0,11880,48.519,31.759,15409.1
236587870,0.634768,2.223,89.0295,0.292496,0.196811,0.880087,-1.59843,-2.1019,-0.0586938,-1.82841,3.24384,1.88845,-3.1,0.7,0,11880,48.519,31.759,15409.1
236688286,0.634768,2.223,89.0095,0.221031,0.161635,0.872033,-1.92303,-2.04583,-0.0130442,-1.50455,2.54998,1.23265,-3.1,0.7,0,11880,48.519,31.759,15409.1
236788680,0.634768,2.223,89.0194,0.158328,0.130582,0.867634,-2.15072,-2.00938,-0.00906666,-1.03969,1.75798,0.445193,3.4,-4.8,0,11880,48.519,31.759,15409.1
236889049,0.634768,2.223,89.0254,0.106937,0.100154,0.863502,-2.32052,-1.9798,-0.00342425,-0.816493,1.23861,0.30667,3.4,-4.8,0,11880,48.519,31.759,15409.1
236989898,0.634768,2.223,89.0249,-0.0398496,-0.0739502,0.86007,-2.45372,-1.96664,0.033902,-0.565435,0.773882,0.704446,3.4,-4.8,0,11880,48.519,31.759,15409.1
237091172,0.634768,2.223,89.0366,-0.185445,-0.231242,0.88473,-2.26118,-1.88365,0.0776933,2.10487,-1.32066,-0.0275463,3.4,-4.8,0,11880,48.519,31.759,15409.1
237191542,0.634768,2.223,89.0514,-0.27341,-0.312987,0.908072,-1.90672,-1.79398,-0.00302558,2.96931,-2.27715,0.931185,3.4,-4.8,0,11880,48.519,31.759,15409.1
237291901,0.634768,2.223,89.0456,-0.322078,-0.345214,0.920589,-1.33518,-1.66943,-0.0392378,3.58742,-2.9036,2.04074,3.4,-4.8,0,11880,48.465,30.314,14691.7
237392350,0.634768,2.223,89.0161,-0.336711,-0.352565,0.924415,-0.809248,-1.57643,-0.0661168,3.51417,-2.99552,2.5669,3.4,-4.8,0,11880,48.465,30.314,14691.7
237492682,0.634768,2.223,88.986,-0.330689,-0.348204,0.922592,-0.268184,-1.47568,-0.0755675,3.60942,-2.9649,2.72851,3.4,-4.8,0,11880,48.465,30.314,14691.7
237593025,0.634768,2.223,88.9638,-0.320609,-0.338016,0.919321,0.270839,-1.3778,-0.0630381,3.58154,-2.93193,2.62521,3.4,-4.8,0,11880,48.465,30.314,14691.7
237693399,0.634768,2.223,88.9462,-0.305195,-0.325183,0.914765,0.786035,-1.28578,-0.0465253,3.32831,-2.83727,2.4612,3.4,-4.8,0,11880,48.465,30.314,14691.7
237793784,0.634768,2.223,88.9284,-0.29522,-0.315613,0.911538,1.2731,-1.19907,-0.0295203,3.17409,-2.6221,2.26142,-3.5,2.3,0,11880,48.465,30.314,14691.7
237894141,0.634768,2.223,88.9133,-0.275612,-0.296317,0.905307,1.74819,-1.10909,-0.0243675,3.20367,-2.58703,1.96583,-3.5,2.3,0,11880,48.465,30.314,14691.7
237994538,0.634768,2.223,88.9104,-0.115788,-0.137232,0.869518,2.17923,-1.01609,0.0393409,2.74674,-2.10601,1.70784,-3.5,2.3,0,11880,48.465,30.314,14691.7
238094896,0.634768,2.223,88.9177,0.140794,0.110844,0.870787,2.23109,-0.954658,0.116796,0.153581,0.500831,-0.533932,-3.5,2.3,0,11880,48.465,30.314,14691.7
238195230,0.634768,2.223,88.9272,0.299608,0.244201,0.898309,1.95966,-0.93695,0.00647317,-1.93755,2.4959,0.464521,-3.5,2.3,0,11880,48.465,30.314,14691.7
238295565,0.634768,2.223,88.9445,0.37985,0.312101,0.919678,1.49815,-0.91198,-0.0207881,-2.81721,3.50784,2.18574,-3.5,2.3,0,11867,48.456,29.588,14337.2
238395914,0.634768,2.223,89.0036,0.402939,0.338546,0.927166,0.934962,-0.898482,0.00325871,-3.19791,3.7938,2.82958,-3.5,2.3,0,11867,48.456,29.588,14337.2
238496300,0.634768,2.223,89.043,0.395259,0.340542,0.925206,0.371677,-0.901616,0.0218287,-3.34408,3.76028,2.51219,-3.5,2.3,0,11867,48.456,29.588,14337.2
238596654,0.634768,2.223,89.0146,0.377404,0.334727,0.921843,-0.170432,-0.90169,0.0166576,-3.1583,3.61632,2.56079,-3.5,2.3,0,11867,48.456,29.588,14337.2
238696998,0.634768,2.223,88.9989,0.362546,0.330027,0.919023,-0.702185,-0.902907,0.0182598,-3.03,3.49927,2.50217,-3.5,2.3,0,11867,48.456,29.588,14337.2
238797395,0.634768,2.223,89.0305,0.34657,0.324257,0.9158,-1.21163,-0.923296,0.0183523,-3.0357,3.24073,2.06711,1.7,3.2,0,11867,48.456,29.588,14337.2
238897732,0.634768,2.223,89.0486,0.3295,0.299505,0.908806,-1.69004,-0.946017,0.0169821,-2.91163,3.02739,1.74334,1.7,3.2,0,11867,48.456,29.588,14337.2
238998104,0.634768,2.223,89.0291,0.307983,0.0913632,0.882147,-2.1657,-0.941302,0.09496,-2.28166,2.90375,2.56293,1.7,3.2,0,11867,48.456,29.588,14337.2
239098463,0.634768,2.223,89.0265,0.270175,-0.166177,0.849686,-2.35785,-0.714671,0.0944181,1.08084,2.73144,0.112632,1.7,3.2,0,11867,48.456,29.588,14337.2
239198793,0.634768,2.223,89.0479,0.239789,-0.312123,0.828499,-2.36805,-0.363668,0.0103333,2.87047,2.13563,0.779848,1.7,3.2,0,11867,48.456,29.588,14337.2
239299158,0.634768,2.223,89.0464,0.219914,-0.389024,0.815586,-2.28253,0.0593532,-0.0513524,3.66147,1.75019,1.85633,1.7,3.2,0,11867,48.505,29.386,14253.7
239399494,0.634768,2.223,89.0191,0.207482,-0.412612,0.809427,-2.13258,0.548317,-0.0308874,4.24797,1.64625,2.33604,1.7,3.2,0,11867,48.505,29.386,14253.7
239499842,0.634767,2.223,88.9989,0.202928,-0.408555,0.806541,-1.96374,1.01938,-0.0328054,4.15955,1.43163,2.29314,1.7,3.2,0,11867,48.505,29.386,14253.7
239600230,0.634767,2.223,88.9827,0.202972,-0.384612,0.80731,-1.79935,1.47418,-0.0344565,4.03732,1.43325,2.24177,1.7,3.2,0,11867,48.505,29.386,14253.7
239700575,0.634767,2.223,88.9722,0.184319,-0.333303,0.816092,-1.66068,1.89258,-0.0466981,3.54047,1.3716,2.17176,1.7,3.2,0,11867,48.505,29.386,14253.7
239800989,0.634767,2.223,88.9707,0.160429,-0.27248,0.826229,-1.53915,2.26167,0.0131694,3.07597,1.22671,1.71241,0.6,-2.6,0,11867,48.505,29.386,14253.7
239901348,0.634767,2.223,88.9841,0.113837,-0.210013,0.840411,-1.45102,2.54884,0.0365417,2.45138,1.09889,0.938347,0.6,-2.6,0,11867,48.505,29.386,14253.7
240001714,0.634767,2.223,89.0051,-0.113592,-0.106727,0.866522,-1.34877,2.75554,0.135009,1.87262,0.208148,0.96824,0.6,-2.6,0,11867,48.505,29.386,14253.7
240102100,0.634767,2.223,89.0475,-0.330451,-0.00413235,0.859852,-1.11834,2.64151,0.149201,0.351439,-2.89145,-0.144744,0.6,-2.6,0,11867,48.505,29.386,14253.7
240202475,0.634767,2.223,89.0922,-0.438623,0.0528787,0.845492,-0.831589,2.36467,0.043046,-0.348399,-4.15102,0.713979,0.6,-2.6,0,11867,48.505,29.386,14253.7
240302745,0.634767,2.223,89.1205,-0.488868,0.0816685,0.836034,-0.501448,1.99913,-0.0120029,-0.692478,-4.55531,1.87405,0.6,-2.6,0,11867,48.505,29.386,14253.7
240403009,0.634767,2.223,89.135,-0.510675,0.0974114,0.828571,-0.15613,1.57776,-0.0727047,-0.893986,-4.83956,2.1313,0.6,-2.6,0,11867,48.423,30.451,14745.3
240503310,0.634767,2.223,89.1312,-0.515876,0.0974318,0.826758,0.216634,1.11333,-0.0885226,-0.933752,-5.09389,2.57825,0.6,-2.6,0,11867,48.423,30.451,14745.3
240603663,0.634767,2.223,89.0967,-0.496755,0.0868714,0.829253,0.579968,0.645288,-0.124097,-1.06018,-5.03978,2.59544,0.6,-2.6,0,11867,48.423,30.451,14745.3
240704072,0.634767,2.223,89.0616,-0.462429,0.0707099,0.836548,0.933647,0.195983,-0.118639,-0.906963,-4.72083,2.5275,0.6,-2.6,0,11867,48.423,30.451,14745.3
240804478,0.634767,2.223,89.0355,-0.381403,0.0502142,0.845738,1.27297,-0.208513,-0.0850223,-0.64834,-4.2268,2.41185,-1.9,-1.9,0,11867,48.423,30.451,14745.3
240904828,0.634767,2.223,89.0182,-0.280089,0.0561162,0.849533,1.53984,-0.512682,-0.0456114,-0.325199,-3.27017,1.7002,-1.9,-1.9,0,11867,48.423,30.451,14745.3
241005189,0.634767,2.223,89.0136,-0.139059,0.215003,0.850893,1.69552,-0.751879,0.0497126,-0.931319,-2.07367,1.12081,-1.9,-1.9,0,11867,48.423,30.451,14745.3
241107124,0.634768,2.223,89.0187,-0.0409255,0.345348,0.857009,1.57722,-1.02321,0.00229079,-2.88149,-0.57363,0.141399,-1.9,-1.9,0,11867,48.423,30.451,14745.3
241212897,0.634768,2.223,89.0166,0.008407,0.393056,0.859894,1.33654,-1.3297,-0.0721948,-3.59381,0.00465905,1.36264,-1.9,-1.9,0,11867,48.423,30.451,14745.3
241313361,0.634768,2.223,89.0192,0.0221047,0.370842,0.858486,0.964486,-1.69992,-0.0446476,-3.71193,0.430123,1.84067,-1.9,-1.9,0,11867,48.423,30.451,14745.3
241413760,0.634768,2.223,89.05,0.0132499,0.311601,0.855853,0.695925,-1.9606,-0.0184475,-3.22276,0.351044,1.20945,-1.9,-1.9,0,11867,48.31,31.217,15080.9
241514103,0.634768,2.223,89.0666,-0.000437463,0.24153,0.854779,0.496193,-2.16391,-0.00144629,-2.468,0.175678,0.800477,-1.9,-1.9,0,11867,48.31,31.217,15080.9
241614490,0.634768,2.223,89.0503,-0.0125218,0.177424,0.855643,0.364666,-2.30794,0.00386964,-1.73448,0.0211944,0.236986,-1.9,-1.9,0,11867,48.31,31.217,15080.9
241714877,0.634768,2.223,89.0425,-0.0203301,0.134359,0.856836,0.273629,-2.41156,0.0085323,-1.19046,-0.0389499,0.313489,-1.9,-1.9,0,11867,48.31,31.217,15080.9
241815303,0.634768,2.223,89.0575,-0.0276079,0.102677,0.857646,0.201105,-2.4834,-0.00127973,-0.825608,-0.0254403,0.0565176,5,-0.3,0,11867,48.31,31.217,15080.9
241915683,0.634768,2.223,89.0599,-0.0279741,0.0558007,0.860448,0.155519,-2.54864,-0.00320945,-0.689865,-0.204562,0.352347,5,-0.3,0,11867,48.31,31.217,15080.9
242016051,0.634768,2.223,89.0454,0.0305903,-0.171896,0.858723,0.153551,-2.5426,0.0369748,0.595975,0.0212254,0.300074,5,-0.3,0,11867,48.31,31.217,15080.9
242116421,0.634768,2.223,89.0366,0.0750467,-0.323973,0.849518,0.279775,-2.27728,0.00387982,3.03865,0.670809,0.239029,5,-0.3,0,11867,48.31,31.217,15080.9
242216790,0.634768,2.223,89.0335,0.104204,-0.417542,0.840682,0.447837,-1.9008,-0.0502239,3.93852,0.977894,1.4843,5,-0.3,0,11867,48.31,31.217,15080.9
242317167,0.634768,2.223,89.0213,0.109828,-0.455338,0.837451,0.658846,-1.43998,-0.0647165,4.36896,1.05716,2.35241,5,-0.3,0,11867,48.31,31.217,15080.9
242417519,0.634768,2.223,88.9874,0.106521,-0.466551,0.837876,0.905294,-0.941792,-0.0657489,4.64519,1.01169,2.75125,5,-0.3,0,11867,48.534,29.356,14247.6
242517834,0.634768,2.223,88.9598,0.100043,-0.459065,0.839166,1.15891,-0.450409,-0.0592301,4.61165,0.952903,2.65804,5,-0.3,0,11867,48.534,29.356,14247.6
242618203,0.634768,2.223,88.9472,0.093014,-0.446967,0.840135,1.40894,0.027239,-0.0425037,4.42474,0.891513,2.65355,5,-0.3,0,11867,48.534,29.356,14247.6
242718626,0.634768,2.223,88.9388,0.085623,-0.440124,0.841518,1.66142,0.483137,-0.0229846,4.38061,0.800799,2.32004,5,-0.3,0,11867,48.534,29.356,14247.6
242819041,0.634768,2.223,88.9379,0.0805393,-0.431022,0.842789,1.91221,0.920142,-0.0141992,4.2057,0.704762,2.26746,-3.4,0.5,0,11867,48.534,29.356,14247.6
242919412,0.634768,2.223,88.9406,0.0810229,-0.395133,0.844074,2.15201,1.34891,0.00502249,4.12883,0.772404,2.10031,-3.4,0.5,0,11867,48.534,29.356,14247.6
243019822,0.634768,2.223,88.9583,0.0801136,-0.131026,0.847719,2.35146,1.73379,0.0803275,3.29869,0.740125,1.57662,-3.4,0.5,0,11867,48.534,29.356,14247.6
243120243,0.634768,2.223,88.9816,0.0847807,0.193398,0.863372,2.2988,1.81492,0.118742,-0.519357,0.852485,-0.491895,-3.4,0.5,0,11867,48.534,29.356,14247.6
243220644,0.634768,2.223,89.0084,0.0941456,0.36993,0.874557,2.04002,1.66227,0.0355106,-3.12879,0.861835,0.510224,-3.4,0.5,0,11867,48.534,29.356,14247.6
243320978,0.634768,2.223,89.0411,0.100254,0.464725,0.881569,1.6808,1.40182,0.0075956,-4.2942,0.86972,1.71504,-3.4,0.5,0,11867,48.534,29.356,14247.6
243421340,0.634768,2.223,89.1123,0.0970408,0.501117,0.884079,1.25507,1.07682,0.0102557,-4.86021,0.864928,2.11538,-3.4,0.5,0,11822,48.456,29.289,14192.3
243521666,0.634768,2.223,89.1666,0.0916696,0.502442,0.882638,0.83318,0.737132,0.00183335,-4.90219,0.798141,2.04874,-3.4,0.5,0,11822,48.456,29.289,14192.3
243621965,0.634768,2.223,89.1626,0.0837483,0.490648,0.881073,0.42066,0.390612,-0.0111928,-4.8929,0.702558,2.05551,-3.4,0.5,0,11822,48.456,29.289,14192.3
243722325,0.634768,2.223,89.1614,0.0776322,0.48003,0.880014,0.0188534,0.0393594,-0.0304455,-4.66981,0.582275,2.29145,-3.4,0.5,0,11822,48.456,29.289,14192.3
243822821,0.634768,2.223,89.1812,0.0707286,0.462909,0.878647,-0.36612,-0.300288,-0.0334299,-4.45625,0.607956,1.98487,0.9,0.1,0,11822,48.456,29.289,14192.3
243923191,0.634768,2.223,89.1916,0.0615883,0.407227,0.875284,-0.727387,-0.632374,-0.0472135,-4.31101,0.477758,1.82543,0.9,0.1,0,11822,48.456,29.289,14192.3
244023595,0.634768,2.223,89.1608,0.0355799,0.133988,0.867601,-1.0447,-0.905089,-0.0262986,-3.1939,0.530295,1.41191,0.9,0.1,0,11822,48.456,29.289,14192.3
244123974,0.634768,2.223,89.1338,0.00747707,-0.188123,0.863353,-1.08621,-0.913358,0.00689034,0.485384,0.197565,-0.174902,0.9,0.1,0,11822,48.456,29.289,14192.3
244224385,0.634768,2.223,89.1255,-0.00847679,-0.337586,0.863446,-0.901564,-0.690435,-0.0656297,3.19437,0.00142331,0.497724,0.9,0.1,0,11822,48.456,29.289,14192.3
244324736,0.634768,2.223,89.1016,-0.0177935,-0.373239,0.863387,-0.631933,-0.399459,-0.0984788,3.89782,-0.203569,1.55171,0.9,0.1,0,11822,48.456,29.289,14192.3
244425115,0.634768,2.223,89.0611,-0.0196877,-0.335516,0.862381,-0.34843,-0.104738,-0.0968095,3.84503,-0.231374,1.65201,0.9,0.1,0,11822,48.367,28.835,13946.6
244525487,0.634768,2.223,89.0281,-0.0166886,-0.271521,0.861071,-0.107068,0.14012,-0.0788783,3.22401,-0.223227,1.37936,0.9,0.1,0,11822,48.367,28.835,13946.6
244625840,0.634768,2.223,89.011,-0.00949289,-0.209145,0.860422,0.076111,0.331909,-0.0666722,2.57749,-0.117162,0.921236,0.9,0.1,0,11822,48.367,28.835,13946.6
244726907,0.634768,2.223,88.9984,-0.00382817,-0.158402,0.860482,0.213038,0.472261,-0.0549298,1.91975,-0.0996628,0.541142,0.9,0.1,0,11822,48.367,28.835,13946.6
244832882,0.634768,2.223,88.9978,0.00422131,-0.111473,0.860277,0.32003,0.587541,-0.0317057,1.44028,-0.0655159,0.327678,2.4,3,0,11822,48.367,28.835,13946.6
244934205,0.634768,2.223,89.0053,0.0238799,-0.0780616,0.859215,0.408064,0.671729,-0.0138514,0.776528,-0.133977,0.548151,2.4,3,0,11822,48.367,28.835,13946.6
245034586,0.634768,2.223,89.0208,0.159484,-0.111027,0.849689,0.409722,0.769393,0.0106561,0.774145,0.875658,-0.0604195,2.4,3,0,11822,48.367,28.835,13946.6
245134918,0.634768,2.223,89.0385,0.281664,-0.153709,0.837548,0.341122,1.00865,-0.034987,1.32331,2.17671,0.269827,2.4,3,0,11822,48.367,28.835,13946.6
245235273,0.634768,2.223,89.0493,0.359391,-0.180902,0.827081,0.209556,1.36217,-0.0471989,1.63029,3.09882,1.44859,2.4,3,0,11822,48.367,28.835,13946.6
245335620,0.634768,2.223,89.055,0.396481,-0.19691,0.821955,0.0458947,1.77536,-0.0538854,1.81149,3.60619,1.81305,2.4,3,0,11822,48.367,28.835,13946.6
245435995,0.634768,2.223,89.0534,0.398465,-0.197267,0.823363,-0.128548,2.22273,-0.0533136,1.98529,3.80451,2.05096,2.4,3,0,11822,48.367,28.835,13946.6
245536381,0.634768,2.223,89.0475,0.343994,-0.171952,0.833925,-0.299072,2.64075,-0.029081,1.73008,3.45211,1.9559,2.4,3,0,11822,48.338,30.395,14692.3
245636725,0.634768,2.223,89.0351,0.278488,-0.138666,0.84479,-0.438842,2.97788,0.0057008,1.4573,2.82687,1.25731,2.4,3,0,11822,48.338,30.395,14692.3
245737067,0.634768,2.223,89.0309,0.221665,-0.112931,0.852122,-0.553329,3.21734,0.0189852,0.950428,2.23915,0.546527,2.4,3,0,11822,48.338,30.395,14692.3
245837454,0.634768,2.223,89.0393,0.175952,-0.0947121,0.855491,-0.646607,3.40279,0.0118081,0.718048,1.72253,0.432691,3.2,-4.4,0,11822,48.338,30.395,14692.3
245937749,0.634768,2.223,89.0493,0.106849,-0.0810521,0.861042,-0.717457,3.54547,0.0241127,0.565884,1.28316,0.423383,3.2,-4.4,0,11822,48.338,30.395,14692.3
246038105,0.634768,2.223,89.0668,-0.137402,-0.0657845,0.869614,-0.71199,3.6182,0.0895356,0.512119,-0.0688125,0.780488,3.2,-4.4,0,11822,48.338,30.395,14692.3
246138487,0.634768,2.223,89.09,-0.323063,-0.053489,0.869667,-0.493864,3.46658,0.0928732,0.269774,-2.99566,0.0687301,3.2,-4.4,0,11822,48.338,30.395,14692.3
246238849,0.634768,2.223,89.1047,-0.419197,-0.0507853,0.868211,-0.181422,3.22691,0.0285884,0.24955,-3.83119,1.44039,3.2,-4.4,0,11822,48.338,30.395,14692.3
246339212,0.634768,2.223,89.11,-0.464388,-0.0458893,0.86448,0.200424,2.94357,-0.0140803,0.328486,-4.49117,1.53985,3.2,-4.4,0,11822,48.338,30.395,14692.3
246439567,0.634768,2.223,89.1151,-0.478745,-0.0426852,0.860416,0.608177,2.61692,-0.046238,0.252324,-4.64062,2.20845,3.2,-4.4,0,11822,48.338,30.395,14692.3
246539885,0.634768,2.223,89.1054,-0.474789,-0.0412897,0.855861,1.01893,2.2813,-0.0784137,0.256131,-4.7309,2.13513,3.2,-4.4,0,11777,48.359,29.319,14178.4
246640456,0.634768,2.223,89.083,-0.46089,-0.042504,0.854356,1.42132,1.94196,-0.0917882,0.117774,-4.5191,2.31968,3.2,-4.4,0,11777,48.359,29.319,14178.4
246746256,0.634768,2.223,89.0637,-0.441931,-0.0457488,0.854827,1.81308,1.6097,-0.0880531,0.146554,-4.41656,2.23696,3.2,-4.4,0,11777,48.359,29.319,14178.4
246846674,0.634768,2.223,89.0541,-0.424265,-0.054865,0.857759,2.18389,1.28517,-0.0666512,0.0904933,-4.10244,2.23922,-1.1,-3.7,0,11777,48.359,29.319,14178.4
246947035,0.634768,2.223,89.0492,-0.401776,-0.0549444,0.858435,2.54767,0.984887,-0.0517483,0.22512,-4.06235,1.85141,-1.1,-3.7,0,11777,48.359,29.319,14178.4
247047396,0.634768,2.223,89.0434,-0.326293,0.116101,0.832162,2.90782,0.69943,0.0361889,0.190158,-3.48541,2.72297,-1.1,-3.7,0,11777,48.359,29.319,14178.4
247147740,0.634768,2.223,89.0492,-0.247659,0.276411,0.823013,2.9816,0.312651,0.0502394,-2.41207,-2.6418,0.700557,-1.1,-3.7,0,11777,48.359,29.319,14178.4
247248110,0.634768,2.223,89.0537,-0.203979,0.362341,0.817128,2.90778,-0.088019,-0.0361672,-3.44117,-1.792,0.979462,-1.1,-3.7,0,11777,48.359,29.319,14178.4
247348481,0.634768,2.223,89.0561,-0.187057,0.397828,0.813701,2.76267,-0.535352,-0.0579436,-3.82921,-1.50589,1.94611,-1.1,-3.7,0,11777,48.359,29.319,14178.4
247448845,0.634768,2.223,89.0778,-0.192664,0.398269,0.811136,2.58876,-1.00068,-0.0505065,-4.08387,-1.45319,1.92125,-1.1,-3.7,0,11777,48.359,29.319,14178.4
247549201,0.634768,2.223,89.0933,-0.195224,0.360138,0.814163,2.42868,-1.44739,-0.0550571,-3.97697,-1.55902,1.53036,-1.1,-3.7,0,11777,48.359,29.319,14178.4
247649539,0.634768,2.223,89.0867,-0.180973,0.299345,0.823844,2.30551,-1.84585,-0.0400186,-3.31112,-1.48234,1.52772,-1.1,-3.7,0,11777,48.359,29.319,14178.4
247749878,0.634768,2.223,89.0807,-0.160421,0.232366,0.835649,2.21243,-2.17578,-0.0394477,-2.73243,-1.34143,0.845098,-1.1,-3.7,0,11777,48.359,29.319,14178.4
247850344,0.634768,2.223,89.0909,-0.139408,0.179063,0.84433,2.14996,-2.43713,-0.0324485,-2.03652,-1.18621,0.491367,0,0.3,0,11777,48.359,29.319,14178.4
247950671,0.634768,2.223,89.0912,-0.105582,0.126926,0.851479,2.09929,-2.63366,-0.0356717,-1.54038,-0.908159,0.287799,0,0.3,0,11777,48.359,29.319,14178.4
248051057,0.634768,2.223,89.0784,0.0909913,0.0253027,0.864422,2.05802,-2.78485,0.0246159,-0.997519,-0.511216,0.597523,0,0.3,0,11777,48.359,29.319,14178.4
248151420,0.634768,2.223,89.0719,0.303752,-0.0574068,0.853725,1.91353,-2.65075,0.00313076,0.372067,2.32242,-0.302202,0,0.3,0,11777,48.359,29.319,14178.4
248251803,0.634768,2.223,89.0598,0.422176,-0.096818,0.838538,1.66718,-2.35681,-0.0764459,0.781866,3.69067,1.09669,0,0.3,0,11777,48.359,29.319,14178.4
248352153,0.634768,2.223,89.0478,0.480887,-0.111488,0.82966,1.34664,-1.92811,-0.0947026,1.13379,4.56056,2.42529,0,0.3,0,11777,48.359,29.319,14178.4
248452487,0.634768,2.223,89.0302,0.471715,-0.105489,0.830273,0.995104,-1.45002,-0.0952957,1.19525,4.8462,2.91223,0,0.3,0,11777,48.359,29.319,14178.4
248552850,0.634768,2.223,89.0062,0.396131,-0.0854928,0.838001,0.655701,-0.992604,-0.0652513,1.06698,4.57081,2.56465,0,0.3,0,11777,48.365,29.524,14279.3
248653201,0.634768,2.223,88.9921,0.306351,-0.0637264,0.845904,0.384339,-0.635367,-0.0340054,0.832409,3.77987,1.56756,0,0.3,0,11777,48.365,29.524,14279.3
248753556,0.634768,2.223,89.0003,0.227934,-0.0456808,0.851672,0.186624,-0.385369,-0.00902936,0.520411,2.67881,0.910482,0,0.3,0,11777,48.365,29.524,14279.3
248853969,0.634768,2.223,89.0091,0.163258,-0.0317801,0.855298,0.0407538,-0.190161,0.000535503,0.422711,1.96149,0.48971,-3.4,5,0,11777,48.365,29.524,14279.3
248954337,0.634768,2.223,89.0145,0.124381,-0.00859941,0.858796,-0.061398,-0.0531455,0.00627048,0.229584,1.31602,0.275872,-3.4,5,0,11777,48.365,29.524,14279.3
249054760,0.634768,2.223,89.0258,0.181124,0.0774319,0.864291,-0.158148,0.0543815,0.0328699,-0.116065,1.30693,0.0797163,-3.4,5,0,11777,48.365,29.524,14279.3
249155146,0.634768,2.223,89.0378,0.260845,0.154605,0.878249,-0.378945,0.128487,-0.00863314,-1.07639,2.03313,0.16177,-3.4,5,0,11777,48.365,29.524,14279.3
249255500,0.634768,2.223,89.0538,0.31681,0.205436,0.891435,-0.785867,0.208055,-0.0197503,-1.75766,2.68377,1.37317,-3.4,5,0,11777,48.365,29.524,14279.3
249355759,0.634768,2.223,89.0688,0.347382,0.231508,0.899766,-1.18915,0.26301,-0.0230104,-2.16391,3.06221,1.40594,-3.4,5,0,11777,48.365,29.524,14279.3
249456115,0.634768,2.223,89.0797,0.356216,0.241262,0.903049,-1.61591,0.315218,-0.0165696,-2.22881,3.12369,1.73685,-3.4,5,0,11777,48.365,29.524,14279.3
249556424,0.634768,2.223,89.0803,0.353583,0.242299,0.903391,-2.03897,0.363658,-0.0119844,-2.20847,3.08066,1.73264,-3.4,5,0,11745,48.365,29.341,14190.8
249656692,0.634768,2.223,89.0801,0.348326,0.238876,0.902744,-2.44653,0.404822,-0.0177326,-2.16518,2.9209,1.52039,-3.4,5,0,11745,48.365,29.341,14190.8
249757061,0.634768,2.223,89.0845,0.341195,0.234935,0.901518,-2.84648,0.441402,-0.0148893,-2.18994,2.96333,1.35264,-3.4,5,0,11745,48.365,29.341,14190.8
249857419,0.634768,2.223,89.0842,0.3336,0.22981,0.900351,-3.22601,0.477118,-0.00710192,-1.96203,2.69465,1.66826,4,-4.6,0,11745,48.365,29.341,14190.8
249957793,0.634768,2.223,89.0836,0.308146,0.208212,0.892927,-3.59213,0.51234,-0.0199855,-1.99966,2.82333,1.08935,4,-4.6,0,11745,48.365,29.341,14190.8
250058145,0.634768,2.223,89.084,0.0962003,0.0452331,0.86163,-3.91291,0.540334,0.044177,-1.42961,2.05894,1.47036,4,-4.6,0,11745,48.365,29.341,14190.8
250158464,0.634768,2.223,89.0936,-0.163308,-0.14361,0.872703,-3.83793,0.560212,0.130356,0.95818,-0.804704,0.386231,4,-4.6,0,11745,48.365,29.341,14190.8
250258764,0.634768,2.223,89.0985,-0.309688,-0.238084,0.901071,-3.48027,0.563333,0.0669301,2.40296,-2.79962,0.699705,4,-4.6,0,11745,48.365,29.341,14190.8
250359149,0.634768,2.223,89.0911,-0.384401,-0.277499,0.918561,-2.99403,0.54756,0.0188688,2.86447,-3.58512,1.78927,4,-4.6,0,11745,48.365,29.341,14190.8
250459506,0.634768,2.223,89.0723,-0.421057,-0.284468,0.921619,-2.46508,0.50691,-0.0545424,2.8144,-3.78899,2.23456,4,-4.6,0,11745,48.365,29.341,14190.8
250559996,0.634768,2.223,89.0422,-0.434522,-0.275532,0.91649,-1.90706,0.44897,-0.118512,2.88122,-4.06198,2.45769,4,-4.6,0,11745,48.365,29.341,14190.8
250660432,0.634768,2.223,89.0027,-0.432675,-0.277686,0.917537,-1.33361,0.364339,-0.143059,2.66823,-4.09172,3.01421,4,-4.6,0,11745,48.365,29.341,14190.8
250761964,0.634768,2.223,88.9597,-0.420705,-0.289371,0.921751,-0.736642,0.282441,-0.142921,2.65952,-4.13098,3.10376,4,-4.6,0,11745,48.365,29.341,14190.8
250862385,0.634768,2.223,88.923,-0.403003,-0.290444,0.919907,-0.132993,0.224004,-0.132208,2.84779,-3.97304,3.24281,-4.8,2.5,0,11745,48.365,29.341,14190.8
250962735,0.634768,2.223,88.9072,-0.363475,-0.257449,0.910598,0.470383,0.181295,-0.0980933,2.88977,-3.73256,3.47893,-4.8,2.5,0,11745,48.365,29.341,14190.8
251063092,0.634768,2.223,88.9058,-0.195206,-0.0584085,0.875128,0.995008,0.129894,-0.00247486,2.30134,-3.40488,2.10191,-4.8,2.5,0,11745,48.275,29.268,14129.1
251163420,0.634768,2.223,88.9271,0.0428865,0.184636,0.872906,1.1141,0.0251874,0.0688129,-0.501372,-0.98486,0.163259,-4.8,2.5,0,11745,48.275,29.268,14129.1
251263794,0.634768,2.223,88.9627,0.206901,0.321758,0.897527,0.8977,-0.0912493,0.00931323,-2.38071,1.25741,0.258868,-4.8,2.5,0,11745,48.275,29.268,14129.1
251364105,0.634768,2.223,89.0197,0.286338,0.38395,0.914157,0.490889,-0.211373,-0.00636681,-3.3393,2.25896,2.17014,-4.8,2.5,0,11745,48.275,29.268,14129.1
251464489,0.634768,2.223,89.0778,0.306655,0.399305,0.916432,-0.00318086,-0.344021,0.024381,-3.84984,2.72661,2.25577,-4.8,2.5,0,11745,48.275,29.268,14129.1
251564819,0.634768,2.223,89.1101,0.293548,0.392593,0.911042,-0.496222,-0.466809,0.0503167,-3.7219,2.71162,2.22387,-4.8,2.5,0,11745,48.275,29.268,14129.1
251665178,0.634768,2.223,89.14,0.272187,0.381985,0.905517,-0.952038,-0.586844,0.0557839,-3.55788,2.45181,1.87358,-4.8,2.5,0,11745,48.275,29.268,14129.1
251765517,0.634768,2.223,89.1644,0.252073,0.371154,0.901089,-1.37745,-0.703967,0.0564751,-3.35878,2.23781,1.51756,-4.8,2.5,0,11745,48.275,29.268,14129.1
251865891,0.634768,2.223,89.1803,0.237016,0.35856,0.898173,-1.77471,-0.817877,0.0376864,-3.18016,2.08849,1.20938,1.1,3.6,0,11745,48.275,29.268,14129.1
251966226,0.634768,2.223,89.1846,0.229826,0.311798,0.89302,-2.15808,-0.939179,0.0128244,-3.11496,1.88944,1.22351,1.1,3.6,0,11745,48.275,29.268,14129.1
252066596,0.634768,2.223,89.19,0.248875,0.0592656,0.874831,-2.52625,-1.01443,0.0760827,-2.25664,1.98796,1.21687,1.1,3.6,0,11745,48.275,29.268,14129.1
252166975,0.634768,2.223,89.1826,0.266683,-0.189406,0.842666,-2.65902,-0.815794,0.0393305,1.27402,2.38956,-0.342531,1.1,3.6,0,11745,48.335,29.323,14173.3
252267390,0.634768,2.223,89.1605,0.282501,-0.324187,0.814723,-2.6573,-0.458933,-0.0813339,2.99888,2.13392,0.907591,1.1,3.6,0,11745,48.335,29.323,14173.3
252367719,0.634768,2.223,89.133,0.284758,-0.385278,0.799064,-2.58414,0.0282548,-0.12165,3.83584,2.13377,2.32229,1.1,3.6,0,11745,48.335,29.323,14173.3
252468093,0.634767,2.223,89.0956,0.278802,-0.39424,0.794872,-2.47774,0.561497,-0.12431,4.24538,2.17729,2.42798,1.1,3.6,0,11745,48.335,29.323,14173.3
252568437,0.634767,2.223,89.0461,0.273701,-0.379448,0.795006,-2.37299,1.07891,-0.13466,4.05355,2.09703,2.52239,1.1,3.6,0,11745,48.335,29.323,14173.3
252670216,0.634767,2.223,89.0024,0.253488,-0.33567,0.803791,-2.27566,1.5788,-0.137291,3.8164,2.01081,2.53958,1.1,3.6,0,11745,48.335,29.323,14173.3
252772449,0.634767,2.223,88.9956,0.217317,-0.270369,0.819165,-2.19916,2.01829,-0.105028,3.20212,1.80118,2.1437,1.1,3.6,0,11745,48.335,29.323,14173.3
252872862,0.634767,2.223,88.9932,0.189697,-0.208533,0.831887,-2.15171,2.36192,-0.07101,2.53115,1.61837,1.22848,2.8,2.6,0,11745,48.335,29.323,14173.3
252973195,0.634767,2.223,88.9898,0.15235,-0.166964,0.841094,-2.12271,2.67411,-0.0324593,1.6333,1.28954,1.13633,2.8,2.6,0,11745,48.335,29.323,14173.3
253073491,0.634767,2.223,89.0065,0.0602376,-0.236273,0.857206,-2.07274,2.88155,0.0140506,1.83671,0.676198,0.831136,2.8,2.6,0,11745,48.335,29.323,14173.3
253173818,0.634767,2.223,89.0518,-0.0246593,-0.304085,0.869039,-1.86106,3.09377,0.0363763,2.81453,-0.342269,0.741882,2.8,2.6,0,11732,48.293,31.5,15212.3
253274224,0.634767,2.223,89.0944,-0.0663293,-0.321745,0.871943,-1.57157,3.28954,0.0143747,3.13476,-0.968638,0.618887,2.8,2.6,0,11732,48.293,31.5,15212.3
253374621,0.634767,2.223,89.1124,-0.0696938,-0.296292,0.869077,-1.27208,3.4765,0.0120739,3.0569,-1.0354,0.744304,2.8,2.6,0,11732,48.293,31.5,15212.3
253475005,0.634767,2.223,89.1286,-0.0555173,-0.245348,0.864457,-1.01706,3.62439,0.00344254,2.5417,-0.903799,0.397265,2.8,2.6,0,11732,48.293,31.5,15212.3
253575355,0.634767,2.223,89.1462,-0.0366145,-0.195599,0.861655,-0.817852,3.73159,-0.0132862,1.96708,-0.741793,0.21574,2.8,2.6,0,11732,48.293,31.5,15212.3
253675714,0.634767,2.223,89.1572,-0.0195701,-0.151898,0.85999,-0.658473,3.81503,-0.00985936,1.49695,-0.545256,0.166402,2.8,2.6,0,11732,48.293,31.5,15212.3
253776102,0.634767,2.223,89.1561,-0.00606601,-0.118435,0.859889,-0.547285,3.86961,-0.0198347,1.05818,-0.34536,-0.0656793,2.8,2.6,0,11732,48.293,31.5,15212.3
253876484,0.634767,2.223,89.1498,0.00789721,-0.0976636,0.859869,-0.461464,3.90879,-0.0438148,0.838289,-0.309155,-0.147141,-2.6,-0.6,0,11732,48.293,31.5,15212.3
253976826,0.634767,2.223,89.1381,0.00594568,-0.0615837,0.858443,-0.392522,3.93848,-0.0586168,0.659129,-0.177592,0.668048,-2.6,-0.6,0,11732,48.293,31.5,15212.3
254077183,0.634767,2.223,89.1325,-0.101356,0.144678,0.85187,-0.341857,3.90903,0.0318271,-0.278559,-0.59898,0.843844,-2.6,-0.6,0,11732,48.293,31.5,15212.3
254177542,0.634767,2.223,89.1334,-0.201072,0.295075,0.831398,-0.361077,3.60207,0.0270073,-2.50731,-1.84056,0.474602,-2.6,-0.6,0,11732,48.276,29.318,14153.6
254277878,0.634767,2.223,89.1238,-0.256203,0.37672,0.814259,-0.402075,3.15135,-0.0423204,-3.45936,-2.36169,1.83456,-2.6,-0.6,0,11732,48.276,29.318,14153.6
254378180,0.634767,2.223,89.1241,-0.278567,0.413607,0.806273,-0.460623,2.59795,-0.053928,-3.89992,-2.68243,2.72678,-2.6,-0.6,0,11732,48.276,29.318,14153.6
254478617,0.634767,2.223,89.1204,-0.294016,0.430311,0.803326,-0.53381,2.05158,-0.100203,-4.24471,-2.69214,1.9756,-2.6,-0.6,0,11732,48.276,29.318,14153.6
254578992,0.634767,2.223,89.0955,-0.30255,0.433161,0.804424,-0.595665,1.47554,-0.129044,-3.92615,-2.72723,3.07557,-2.6,-0.6,0,11732,48.276,29.318,14153.6
254679368,0.634767,2.223,89.0713,-0.300237,0.416818,0.811524,-0.646683,0.877539,-0.132535,-4.0098,-2.94712,2.7627,-2.6,-0.6,0,11732,48.276,29.318,14153.6
254779783,0.634767,2.223,89.0588,-0.273754,0.386773,0.822325,-0.689678,0.30848,-0.117537,-3.68547,-2.67132,2.9981,-2.6,-0.6,0,11732,48.276,29.318,14153.6
254880194,0.634767,2.223,89.0511,-0.23321,0.355365,0.83169,-0.732323,-0.203045,-0.0992632,-3.42448,-2.4747,2.1567,-2.7,3,0,11732,48.276,29.318,14153.6
254980555,0.634767,2.223,89.0378,-0.154242,0.296874,0.846154,-0.774946,-0.649169,-0.0633368,-2.88767,-2.05644,2.40208,-2.7,3,0,11732,48.276,29.318,14153.6
255081243,0.634767,2.223,89.0432,0.0560194,0.202093,0.881782,-0.854481,-1.00512,0.12642,-2.46769,-1.22109,1.27383,-2.7,3,0,11732,48.276,29.318,14153.6
255186474,0.634767,2.223,89.0661,0.266558,0.13892,0.889425,-1.02359,-1.0561,0.0370564,-1.43742,1.66299,-1.34252,-2.7,3,0,11732,48.351,28.825,13937.2
255286840,0.634767,2.223,89.0702,0.389723,0.113655,0.881643,-1.29917,-0.961149,-0.0711572,-0.858646,2.9564,0.757168,-2.7,3,0,11732,48.351,28.825,13937.2
255387195,0.634767,2.223,89.0658,0.441231,0.116624,0.878247,-1.68005,-0.764121,-0.0683885,-0.708613,3.83747,1.97951,-2.7,3,0,11732,48.351,28.825,13937.2
255487561,0.634767,2.223,89.0548,0.449127,0.135986,0.879279,-2.08353,-0.544324,-0.0634826,-0.779156,4.06952,1.97141,-2.7,3,0,11732,48.351,28.825,13937.2
255587853,0.634767,2.223,89.0293,0.411617,0.148192,0.877154,-2.51475,-0.345171,-0.054359,-1.05045,3.94801,2.40382,-2.7,3,0,11732,48.351,28.825,13937.2
255688241,0.634767,2.223,89.0118,0.349214,0.143493,0.872318,-2.9021,-0.181333,-0.0221872,-1.13888,3.53758,1.6654,-2.7,3,0,11732,48.351,28.825,13937.2
255788577,0.634767,2.223,89.0067,0.281246,0.132982,0.869123,-3.2178,-0.050417,-0.0107547,-0.893282,2.80471,1.49798,-2.7,3,0,11732,48.351,28.825,13937.2
255888970,0.634767,2.223,89.011,0.218951,0.12031,0.867271,-3.46639,0.0429602,0.0321393,-0.848001,2.11409,0.865869,-1.5,0.4,0,11732,48.351,28.825,13937.2
255989332,0.634767,2.223,89.0196,0.158853,0.0992845,0.864248,-3.65428,0.107543,0.0490807,-0.702223,1.53899,0.425625,-1.5,0.4,0,11732,48.351,28.825,13937.2
256089689,0.634767,2.223,89.0276,-0.0525012,0.00603749,0.85587,-3.79433,0.159996,0.0932247,-0.403655,0.891415,0.319246,-1.5,0.4,0,11732,48.351,28.825,13937.2
256190037,0.634767,2.223,89.0481,-0.252341,-0.0720237,0.869389,-3.62841,0.119433,0.122672,0.823639,-1.96876,0.237492,-1.5,0.4,0,11732,48.351,23.271,11251.8
256290372,0.634767,2.223,89.0613,-0.335883,-0.099084,0.88209,-3.32407,0.0256514,0.0199133,1.23546,-3.28753,0.0962286,-1.5,0.4,0,11732,48.465,23.271,11278.3
256390739,0.634766,2.223,89.0604,-0.346982,-0.102038,0.885985,-2.95091,-0.0828785,-0.0238584,1.39886,-3.41549,1.67555,-1.5,0.4,0,11732,48.465,23.271,11278.3
256491083,0.634766,2.223,89.0554,-0.312687,-0.0922168,0.884047,-2.58892,-0.208655,-0.0363575,1.23158,-3.44588,0.901371,-1.5,0.4,0,11732,48.465,23.271,11278.3
256591478,0.634766,2.223,89.0398,-0.271759,-0.0782145,0.880825,-2.28692,-0.297388,-0.0801639,1.18889,-2.97048,0.159504,-1.5,0.4,0,11732,48.465,23.271,11278.3
256691775,0.634766,2.223,89.0106,-0.227354,-0.0585048,0.876459,-2.00337,-0.387051,-0.114864,1.02628,-2.61392,0.915339,-1.5,0.4,0,11732,48.465,23.271,11278.3
256792132,0.634766,2.223,88.9829,-0.173873,-0.0290083,0.870293,-1.75973,-0.465667,-0.0875707,0.817818,-2.13142,0.797951,-1.5,0.4,0,11732,48.465,23.271,11278.3
256892508,0.634766,2.223,88.9576,-0.116826,-0.00076073,0.866701,-1.57016,-0.539589,-0.0588242,0.541098,-1.64624,0.759205,2.8,-1.6,0,11732,48.465,23.271,11278.3
256992850,0.634766,2.223,88.9371,-0.0808533,0.0010999,0.863075,-1.4472,-0.594587,-0.0161845,0.264894,-1.12314,0.445069,2.8,-1.6,0,11732,48.465,23.271,11278.3
257093213,0.634766,2.223,88.9274,-0.115189,-0.148846,0.868567,-1.30493,-0.624308,0.0508211,0.905264,-1.05319,1.01412,2.8,-1.6,0,11732,48.465,23.271,11278.3
257193451,0.634766,2.223,88.945,-0.154449,-0.280025,0.883786,-1.0068,-0.523314,0.0375404,2.74372,-1.51435,0.310377,2.8,-1.6,0,11732,48.382,29.938,14484.6
257293812,0.634766,2.223,88.9632,-0.183016,-0.3588,0.897045,-0.623358,-0.368903,-0.0071768,3.42812,-1.69702,1.49093,2.8,-1.6,0,11732,48.382,29.938,14484.6
257394164,0.634766,2.223,88.9725,-0.199671,-0.391691,0.904337,-0.176739,-0.171681,-0.0101198,3.99996,-1.86495,1.81166,2.8,-1.6,0,11732,48.382,29.938,14484.6
257494503,0.634766,2.223,88.9804,-0.203364,-0.389165,0.905056,0.284427,0.0373922,-0.00287711,4.07041,-1.89415,1.99333,2.8,-1.6,0,11732,48.382,29.938,14484.6
257594876,0.634766,2.223,88.9829,-0.200281,-0.373184,0.9027,0.726805,0.224419,0.00237434,3.88317,-1.9435,1.7551,2.8,-1.6,0,11732,48.382,29.938,14484.6
257695257,0.634766,2.223,88.9809,-0.193065,-0.355787,0.899051,1.14991,0.382912,0.000590918,3.53284,-1.93314,1.70136,2.8,-1.6,0,11732,48.382,29.938,14484.6
257795591,0.634766,2.223,88.9767,-0.172541,-0.322807,0.892164,1.54359,0.536229,-0.00192137,3.33978,-1.80035,1.52617,2.8,-1.6,0,11732,48.382,29.938,14484.6
257896190,0.634766,2.223,88.9765,-0.138657,-0.269058,0.882429,1.87508,0.672849,0.0192567,2.71207,-1.38259,1.39406,1.7,1,0,11732,48.382,29.938,14484.6
257996582,0.634766,2.223,88.9811,-0.0821648,-0.207948,0.869203,2.14823,0.788234,0.0557369,2.31403,-1.20583,1.22367,1.7,1,0,11732,48.382,29.938,14484.6
258097006,0.634766,2.223,88.9896,0.150145,-0.0815812,0.849818,2.30105,0.904895,0.114124,1.51251,0.086926,0.239415,1.7,1,0,11732,48.382,29.938,14484.6
258197424,0.634767,2.223,89.0077,0.327636,0.0206789,0.864464,2.11875,1.07531,0.0570507,-0.054701,2.80544,-0.170196,1.7,1,0,11732,48.382,29.938,14484.6
258297857,0.634767,2.223,89.0228,0.385168,0.0640144,0.878246,1.78484,1.26653,-0.0179897,-0.754178,3.55646,1.40395,1.7,1,0,11732,48.398,24.525,11869.6
258398218,0.634767,2.223,89.0423,0.360748,0.0717545,0.881714,1.40357,1.46987,-0.00245298,-0.875873,3.78304,1.64781,1.7,1,0,11732,48.398,24.525,11869.6
258498567,0.634767,2.223,89.0545,0.294916,0.0554201,0.877269,1.0798,1.63596,-0.00898939,-0.752747,3.26696,0.762341,1.7,1,0,11732,48.398,24.525,11869.6
258598915,0.634767,2.223,89.0429,0.223947,0.0361583,0.872449,0.824309,1.76206,-0.00544542,-0.673246,2.51299,0.587877,1.7,1,0,11732,48.398,24.525,11869.6
258699257,0.634767,2.223,89.037,0.166342,0.0169273,0.867569,0.634024,1.86133,-0.00659284,-0.413266,1.90199,0.137786,1.7,1,0,11732,48.398,24.525,11869.6
258799669,0.634767,2.223,89.0457,0.120496,0.00683818,0.865139,0.497351,1.93501,0.00093995,-0.246545,1.32634,0.355897,1.7,1,0,11732,48.398,24.525,11869.6
258900122,0.634767,2.223,89.0489,0.0821301,-0.00406059,0.863976,0.385187,1.97678,-0.00509854,-0.29545,0.946564,-0.129705,3.9,4.2,0,11732,48.398,24.525,11869.6
259000473,0.634767,2.223,89.035,0.0776799,-0.0308129,0.862122,0.316475,2.00835,-0.0142928,-0.111839,0.451951,0.301608,3.9,4.2,0,11732,48.398,24.525,11869.6
259100761,0.634767,2.223,89.0242,0.16919,-0.107509,0.854428,0.257612,2.07497,-0.0138229,0.416636,0.920245,-0.239163,3.9,4.2,0,11732,48.398,24.525,11869.6
259201110,0.634767,2.223,89.0216,0.269088,-0.174096,0.839804,0.17551,2.27265,-0.0684032,1.18128,1.86798,0.305312,3.9,4.2,0,11732,48.398,24.525,11869.6
259301426,0.634767,2.223,89.0181,0.332939,-0.212414,0.829484,0.0471674,2.58917,-0.0823631,1.57293,2.70508,1.40868,3.9,4.2,0,11700,48.47,25.334,12279.4
259401796,0.634767,2.223,89.0063,0.360861,-0.232369,0.82435,-0.0954146,2.97786,-0.060159,1.87035,3.12097,1.9687,3.9,4.2,0,11700,48.47,25.334,12279.4
259502162,0.634767,2.223,88.995,0.360489,-0.244783,0.82246,-0.231173,3.38883,-0.0460832,2.1045,3.23548,1.90526,3.9,4.2,0,11700,48.47,25.334,12279.4
259602515,0.634767,2.223,88.9793,0.353364,-0.252367,0.822196,-0.356937,3.78637,-0.0470518,2.0684,3.09234,1.89387,3.9,4.2,0,11700,48.47,25.334,12279.4
259702883,0.634767,2.223,88.9614,0.334279,-0.250212,0.825247,-0.476074,4.19341,-0.0327131,2.05751,3.08032,2.03266,3.9,4.2,0,11700,48.47,25.334,12279.4
259803233,0.634767,2.223,88.9584,0.286434,-0.232031,0.831758,-0.576751,4.57962,-0.00366862,1.97467,2.86588,1.77036,3.9,4.2,0,11700,48.47,25.334,12279.4
259903626,0.634767,2.223,88.9586,0.233607,-0.210608,0.838477,-0.647677,4.89641,0.0262947,1.72085,2.26291,1.28108,-3.9,-2.2,0,11700,48.47,25.334,12279.4
260003980,0.634767,2.223,88.9599,0.169656,-0.150011,0.848158,-0.68135,5.16461,0.0547201,1.63605,1.72441,1.34529,-3.9,-2.2,0,11700,48.47,25.334,12279.4
260104374,0.634767,2.223,88.9749,-0.0132538,0.0741077,0.859788,-0.719187,5.31866,0.156547,0.436195,0.871235,1.25005,-3.9,-2.2,0,11700,48.47,25.334,12279.4
260204727,0.634767,2.223,89.0142,-0.172079,0.247199,0.83858,-0.77873,5.07798,0.212617,-2.43796,-1.37855,0.183023,-3.9,-2.2,0,11700,48.47,25.334,12279.4
260305082,0.634766,2.223,89.0527,-0.256887,0.319925,0.818916,-0.820198,4.67745,0.104102,-3.27954,-2.34835,0.989143,-3.9,-2.2,0,11700,48.352,27.96,13519.2
260405434,0.634766,2.223,89.0802,-0.295355,0.346542,0.809244,-0.850116,4.18571,0.0739053,-3.73249,-2.8655,1.50799,-3.9,-2.2,0,11700,48.352,27.96,13519.2
260505780,0.634766,2.223,89.0963,-0.314952,0.357086,0.802785,-0.861694,3.70316,-0.00663307,-3.62002,-2.98531,1.43715,-3.9,-2.2,0,11700,48.352,27.96,13519.2
260606077,0.634766,2.223,89.0942,-0.326892,0.364566,0.797725,-0.872047,3.17704,-0.053979,-3.65233,-3.01607,2.24975,-3.9,-2.2,0,11700,48.352,27.96,13519.2
260706435,0.634766,2.223,89.0897,-0.340014,0.371874,0.79318,-0.866138,2.61392,-0.0916403,-3.7196,-3.23434,2.40844,-3.9,-2.2,0,11700,48.352,27.96,13519.2
260806849,0.634766,2.223,89.0677,-0.346583,0.37416,0.791657,-0.869867,2.02517,-0.0931201,-3.81096,-3.20653,2.68261,-3.9,-2.2,0,11700,48.352,27.96,13519.2
260907241,0.634766,2.223,89.0473,-0.3387,0.366114,0.795783,-0.866904,1.43683,-0.0970306,-3.72194,-3.19001,2.7368,-0.958253,-7.21705,0,11700,48.352,27.96,13519.2
261007567,0.634766,2.223,89.0281,-0.320439,0.346996,0.805987,-0.854907,0.8545,-0.0884017,-3.63477,-3.22007,2.55526,-1.03297,-7.28744,0,11700,48.352,27.96,13519.2
261107832,0.634766,2.223,89.0114,-0.227011,0.216618,0.839761,-0.874883,0.299187,-0.0789563,-3.40426,-2.70743,2.53876,-1.28884,-7.52215,0,11700,48.352,27.96,13519.2
261208084,0.634766,2.223,89.0007,-0.129109,0.0815679,0.8563,-0.829418,-0.0220366,-0.0365563,-1.74403,-1.96397,0.467988,-1.40063,-7.65219,0,11700,48.352,27.96,13519.2
261308358,0.634766,2.223,88.9959,-0.0560873,-0.0232604,0.861863,-0.768331,-0.157434,-0.0384457,-0.292136,-0.959542,0.258288,-1.38353,-7.64203,0,11642,48.357,27.581,13337.3
261408699,0.634766,2.223,88.9942,-0.0187715,-0.0836576,0.861908,-0.701891,-0.179707,-0.0177348,0.464524,-0.461154,0.319422,-1.32812,-7.60429,0,11642,48.357,27.581,13337.3
261509108,0.634766,2.223,88.9909,-0.00362775,-0.111078,0.862432,-0.626199,-0.147995,-0.0171362,0.866412,-0.156302,0.00813735,-1.27438,-7.55809,0,11642,48.357,27.581,13337.3
261610009,0.634766,2.223,88.9845,0.0021886,-0.115905,0.862712,-0.541822,-0.0929599,-0.00766616,1.03912,-0.100168,0.314288,-1.23707,-7.54065,0,11642,48.357,27.581,13337.3
261710378,0.634766,2.223,88.983,0.0046973,-0.110357,0.863432,-0.463386,-0.0310872,-0.0022736,1.02707,-0.00193861,0.0629717,-1.21315,-7.531,0,11642,48.357,27.581,13337.3
261810739,0.634766,2.223,88.9814,0.00304829,-0.0985167,0.863537,-0.395073,0.0343132,0.00857183,0.905465,-0.0421796,0.495831,-1.1947,-7.53611,0,11642,48.357,27.581,13337.3
261911133,0.634766,2.223,88.9797,0.000410831,-0.0852594,0.863397,-0.331833,0.0885778,0.00926904,0.780551,-0.104425,0.261264,-1.18963,-7.54838,0,11642,48.357,27.581,13337.3
262011460,0.634766,2.223,88.9803,-0.00653857,-0.0697329,0.863732,-0.284,0.131894,0.0118122,0.557258,-0.0875338,0.231036,-1.19077,-7.56289,0,11642,48.357,27.581,13337.3
262111763,0.634766,2.223,88.9825,-0.132087,-0.0309744,0.866209,-0.234768,0.172566,0.0499726,0.498387,-0.261327,0.505936,-1.22559,-7.59098,0,11642,48.357,27.581,13337.3
262212123,0.634766,2.223,88.9932,-0.266592,0.0104356,0.861179,-0.0911923,0.0610037,0.0489007,-0.113789,-2.02456,0.13952,-1.19663,-7.61311,0,11642,48.357,27.581,13337.3
262312481,0.634766,2.223,89.0046,-0.35482,0.0358619,0.854668,0.114061,-0.15551,0.0163877,-0.408381,-3.08524,0.71191,-1.16693,-7.63326,0,11642,48.354,25.996,12570.1
262412852,0.634766,2.223,89.0156,-0.39866,0.0528421,0.849063,0.369758,-0.443401,0.00997603,-0.600366,-3.62389,1.58511,-1.1327,-7.63377,0,11642,48.354,25.996,12570.1
262513213,0.634766,2.223,89.0239,-0.413417,0.0647192,0.844121,0.687273,-0.837617,-0.00213362,-0.830016,-3.86397,1.73482,-1.11025,-7.62499,0,11642,48.354,25.996,12570.1
262613562,0.634766,2.223,89.0277,-0.409937,0.070921,0.840405,0.946447,-1.18226,0.00708412,-0.895855,-3.79844,1.87065,-1.08552,-7.59388,0,11642,48.354,25.996,12570.1
262713899,0.634766,2.223,89.0328,-0.401777,0.0711141,0.839842,1.1879,-1.51149,0.0136807,-0.894313,-3.7145,1.56743,-1.08581,-7.54536,0,11642,48.354,25.996,12570.1
262814270,0.634766,2.223,89.0344,-0.392463,0.0666651,0.842704,1.41788,-1.83446,0.00986289,-0.928129,-3.44718,1.56541,-1.10212,-7.47715,0,11642,48.354,25.996,12570.1
262914673,0.634766,2.223,89.0313,-0.385566,0.0610336,0.845752,1.63899,-2.14595,-0.0047177,-0.949491,-3.49107,1.15434,-1.11549,-7.38858,0,11642,48.354,25.996,12570.1
263015029,0.634766,2.223,89.0271,-0.385471,0.0557564,0.849592,1.86011,-2.44998,-0.00528025,-0.836287,-3.36417,1.3549,-1.12761,-7.28568,0,11642,48.354,25.996,12570.1
263115419,0.634766,2.223,89.0202,-0.385336,0.04647,0.854461,2.07411,-2.73816,-0.0144976,-0.717531,-3.28111,1.26598,-1.13992,-7.16065,0,11642,48.354,25.996,12570.1
263215777,0.634767,2.223,89.0141,-0.381362,0.037979,0.858566,2.30473,-3.00387,-0.0200744,-0.492181,-3.16996,1.23087,-1.14205,-7.02712,0,11642,48.354,25.996,12570.1
263316112,0.634767,2.223,89.0093,-0.373495,0.031091,0.859701,2.53092,-3.25962,-0.0258162,-0.436177,-3.04966,1.35677,-1.11721,-6.87649,0,11642,48.354,25.996,12570.1
263416465,0.634767,2.223,89.008,-0.368622,0.024284,0.859524,2.75882,-3.50471,-0.0259717,-0.35245,-2.99085,1.23404,-1.08352,-6.72161,0,11642,48.29,28.801,13908
263516849,0.634767,2.223,89.0044,-0.366035,0.0197517,0.859141,2.97418,-3.7384,-0.0278649,-0.338893,-2.85282,1.33176,-1.04455,-6.55211,0,11642,48.29,28.801,13908
263617211,0.634767,2.223,89.0002,-0.355493,0.0179609,0.858082,3.18831,-3.97861,-0.0264386,-0.437074,-3.02484,1.08469,-1.00221,-6.37766,0,11642,48.29,28.801,13908
263717572,0.634767,2.223,89.0005,-0.311007,0.0128954,0.858794,3.38236,-4.20348,-0.00690063,-0.443775,-2.63169,1.13133,-0.969553,-6.18908,0,11642,48.29,28.801,13908
263817930,0.634767,2.223,89.0042,-0.24531,0.00488437,0.860349,3.52984,-4.37363,0.0070391,-0.312471,-2.08346,0.698772,-0.942565,-5.99221,0,11642,48.29,28.801,13908
263918359,0.634767,2.223,89.0097,-0.185773,-0.00380906,0.861758,3.62231,-4.48966,0.0237867,-0.236286,-1.39557,0.235093,-0.912137,-5.78782,0,11642,48.29,28.801,13908
264018716,0.634767,2.223,89.0264,-0.12192,-0.0146515,0.862989,3.67042,-4.53948,0.0241012,-0.0787476,-0.692332,-0.062555,-0.879578,-5.57931,0,11642,48.29,28.801,13908
264119049,0.634767,2.223,89.043,-0.0724052,-0.0256689,0.863399,3.68394,-4.54533,0.0305062,0.0767207,-0.134197,0.10843,-0.842791,-5.3726,0,11642,48.29,28.801,13908
264219338,0.634767,2.223,89.0626,-0.0289867,-0.0344954,0.863092,3.67378,-4.51825,0.0313482,0.133626,0.183438,-0.212495,-0.802955,-5.16573,0,11642,48.29,28.801,13908
264319692,0.634767,2.223,89.0798,0.00656681,-0.0435598,0.8622,3.63112,-4.46001,0.0266089,0.164689,0.626627,0.0054359,-0.762502,-4.96897,0,11642,48.29,28.801,13908
264420065,0.634767,2.223,89.0924,0.036308,-0.0508774,0.861881,3.57414,-4.37882,0.0223376,0.226786,0.803151,0.0700197,-0.725284,-4.77186,0,11642,48.293,27.382,13223.6
264520413,0.634767,2.223,89.0977,0.0522913,-0.0564385,0.861122,3.499,-4.2626,-0.000614364,0.403471,1.18627,-0.123665,-0.689214,-4.59102,0,11642,48.293,27.382,13223.6
264620759,0.634767,2.223,89.095,0.0578567,-0.0554884,0.86146,3.42744,-4.13564,-0.0328628,0.457108,1.20557,-0.0417257,-0.658719,-4.4096,0,11642,48.293,27.382,13223.6
264721086,0.634767,2.223,89.0944,0.0660843,-0.0537002,0.861544,3.3508,-4.00396,-0.049878,0.482308,1.30862,-0.203001,-0.631015,-4.24847,0,11642,48.293,27.382,13223.6
264821469,0.634767,2.223,89.0897,0.0752138,-0.0528452,0.860988,3.26304,-3.86148,-0.0517744,0.478571,1.407,0.243798,-0.600853,-4.08415,0,11642,48.293,27.382,13223.6
264921839,0.634767,2.223,89.0827,0.0788945,-0.0487687,0.860349,3.17172,-3.71952,-0.0585697,0.452491,1.4031,0.284253,-0.575292,-3.94046,0,11642,48.293,27.382,13223.6
265023959,0.634767,2.223,89.0717,0.0804183,-0.0463962,0.860393,3.07845,-3.58211,-0.0606537,0.429498,1.3815,0.209903,-0.552623,-3.79058,0,11642,48.293,27.382,13223.6
265129255,0.634768,2.223,89.0612,0.0776246,-0.0411125,0.860492,2.99151,-3.4393,-0.056667,0.516809,1.35859,0.223626,-0.534898,-3.65905,0,11642,48.293,27.382,13223.6
265229635,0.634768,2.223,89.0549,0.0710818,-0.0341165,0.861357,2.89378,-3.3183,-0.0451295,0.235152,1.32247,0.459348,-0.5195,-3.52128,0,11642,48.293,27.382,13223.6
265329978,0.634768,2.223,89.0465,0.0643657,-0.0287511,0.861567,2.80208,-3.19781,-0.0373328,0.339277,1.29738,-0.0154189,-0.505153,-3.39828,0,11642,48.293,27.382,13223.6
265430327,0.634768,2.223,89.0419,0.0612482,-0.0276976,0.862231,2.7173,-3.09226,-0.0359564,0.235627,1.17984,0.301484,-0.490624,-3.26939,0,11642,48.268,28.518,13765.1
265530683,0.634768,2.223,89.0384,0.0605482,-0.0269223,0.862123,2.64044,-2.99248,-0.0408417,0.235336,1.1259,0.108778,-0.476324,-3.1538,0,11642,48.268,28.518,13765.1
265631028,0.634768,2.223,89.0334,0.0598575,-0.026291,0.861916,2.55875,-2.89491,-0.0338734,0.204549,1.17089,0.18588,-0.46088,-3.03533,0,11642,48.268,28.518,13765.1
265731385,0.634768,2.223,89.0303,0.0557918,-0.0275557,0.861643,2.485,-2.79932,-0.0322875,0.21973,1.06813,0.326748,-0.446288,-2.92167,0,11642,48.268,28.518,13765.1
265831742,0.634768,2.223,89.0286,0.0548617,-0.0274957,0.86114,2.41379,-2.70704,-0.0112882,0.215385,1.07478,0.00772092,-0.42986,-2.80296,0,11642,48.268,28.518,13765.1
265932137,0.634768,2.223,89.0281,0.0563236,-0.027215,0.8602,2.34198,-2.61449,-0.011213,0.212504,1.09028,0.236511,-0.413923,-2.68944,0,11642,48.268,28.518,13765.1
266032503,0.634768,2.223,89.0247,0.0599279,-0.0236448,0.85939,2.27397,-2.52185,-0.000635535,0.223307,1.06363,0.0397321,-0.399086,-2.57851,0,11642,48.268,28.518,13765.1
266132864,0.634768,2.223,89.0294,0.0633679,-0.0180644,0.858775,2.19038,-2.42493,-0.00532065,0.108401,0.989749,0.0252564,-0.385409,-2.47177,0,11642,48.268,28.518,13765.1
266233912,0.634768,2.223,89.0339,0.0637319,-0.0129415,0.858543,2.10878,-2.34488,0.00140683,0.0407516,1.02364,0.0594458,-0.37262,-2.36699,0,11642,48.268,28.518,13765.1
266335968,0.634768,2.223,89.0403,0.0587499,-0.0096019,0.857935,2.02047,-2.27857,-0.00268427,-0.0998748,1.0072,-0.00379118,-0.357785,-2.26473,0,11642,48.268,28.518,13765.1
266436503,0.634768,2.223,89.0393,0.0555676,-0.0110411,0.857706,1.95122,-2.22057,0.000736041,-0.0303878,0.850364,0.0100587,-0.343692,-2.16504,0,11642,48.368,25.623,12393.3
266536874,0.634768,2.223,89.0387,0.057568,-0.0167987,0.857727,1.87871,-2.15796,-0.00721481,0.000235325,0.941502,-0.00460361,-0.327976,-2.06714,0,11642,48.368,25.623,12393.3
266637197,0.634768,2.223,89.0365,0.0623119,-0.0215092,0.858219,1.80601,-2.09491,-0.00564875,0.0780788,0.91506,0.127498,-0.313983,-1.97271,0,11642,48.368,25.623,12393.3
266737540,0.634768,2.223,89.0309,0.0683409,-0.025161,0.85831,1.73209,-2.01513,-0.00235821,0.156176,1.07116,0.0795048,-0.297327,-1.88005,0,11642,48.368,25.623,12393.3
266837950,0.634768,2.223,89.0267,0.0715844,-0.0274209,0.858224,1.65332,-1.94379,-0.00265509,0.0310179,1.07449,-0.0878744,-0.28204,-1.79165,0,11642,48.368,25.623,12393.3
266938929,0.634768,2.223,89.0208,0.0726631,-0.0302575,0.858196,1.57762,-1.86924,-0.00329992,0.0849033,1.01246,-0.00180867,-0.265654,-1.70434,0,11642,48.368,25.623,12393.3
267039307,0.634768,2.223,89.015,0.0731064,-0.0325583,0.858705,1.50603,-1.78696,-0.0100167,0.181771,1.04745,-0.00465144,-0.251581,-1.6216,0,11642,48.368,25.623,12393.3
267139671,0.634768,2.223,89.0136,0.0722898,-0.0335515,0.859328,1.4305,-1.7077,-0.00141821,0.107502,1.05165,0.0646347,-0.236506,-1.54146,0,11642,48.368,25.623,12393.3
267240067,0.634768,2.223,89.0131,0.0719076,-0.036032,0.859512,1.36686,-1.61789,0.00154908,0.278269,1.05451,0.146027,-0.222413,-1.46704,0,11642,48.368,25.623,12393.3
267340417,0.634768,2.223,89.0118,0.0709336,-0.035114,0.860097,1.31678,-1.53452,-0.00409009,0.282591,0.892297,0.223671,-0.20907,-1.39478,0,11642,48.368,25.623,12393.3
267440763,0.634768,2.223,89.0072,0.0722367,-0.0320795,0.860107,1.25784,-1.45079,-0.00364796,0.230813,0.987004,0.0787817,-0.197277,-1.32705,0,11610,48.36,26.819,12969.7
267541085,0.634768,2.223,89.0021,0.0706535,-0.0302802,0.859679,1.1981,-1.37406,-0.0019517,0.172404,0.923059,0.272118,-0.186095,-1.26162,0,11610,48.36,26.819,12969.7
267641408,0.634768,2.223,88.9969,0.0659547,-0.0314164,0.85886,1.14058,-1.30334,-0.0045533,0.154231,0.902421,0.135989,-0.175796,-1.20084,0,11610,48.36,26.819,12969.7
267741785,0.634768,2.223,88.9898,0.0634725,-0.0334411,0.85769,1.08962,-1.23457,0.00673421,0.177043,0.863529,0.122267,-0.166109,-1.14206,0,11610,48.36,26.819,12969.7
267842158,0.634768,2.223,88.9907,0.0620313,-0.0359021,0.857099,1.03296,-1.16909,0.00725383,0.134809,0.852965,-0.114939,-0.157783,-1.08691,0,11610,48.36,26.819,12969.7
267942555,0.634768,2.223,88.9938,0.0602938,-0.0358429,0.857139,0.987419,-1.10223,-3.67584e-05,0.215455,0.788341,-0.0720783,-0.151247,-1.03288,0,11610,48.36,26.819,12969.7
268042914,0.634768,2.223,89.0008,0.0597316,-0.0347363,0.857285,0.940908,-1.03428,-0.000811647,0.19569,0.78947,-0.0285285,-0.145175,-0.982632,0,11610,48.36,26.819,12969.7
268143288,0.634768,2.223,89.0028,0.0596176,-0.03248,0.857862,0.896974,-0.970622,-0.00645791,0.188827,0.742729,0.0675884,-0.140097,-0.935482,0,11610,48.36,26.819,12969.7
268243679,0.634768,2.223,89.0026,0.0581679,-0.0297282,0.858163,0.852342,-0.909001,-0.00258627,0.151632,0.776659,0.0172178,-0.134974,-0.892558,0,11610,48.36,26.819,12969.7
268344085,0.634768,2.223,89.002,0.0531987,-0.0278819,0.858422,0.807359,-0.845609,-0.00235314,0.171843,0.744532,0.102564,-0.130569,-0.851592,0,11610,48.36,26.819,12969.7
268444441,0.634768,2.223,88.9992,0.0490088,-0.022111,0.859507,0.763677,-0.796548,-0.00630294,0.0538445,0.633658,-0.0223347,-0.127497,-0.813228,0,11610,48.36,26.819,12969.7
268544736,0.634768,2.223,88.9991,0.0444455,-0.0175381,0.860547,0.717768,-0.747319,0.0103477,0.0724861,0.659688,0.234877,-0.124896,-0.775512,0,11597,48.382,25.96,12560
268645179,0.634768,2.223,89.0048,0.0413035,-0.0149997,0.861333,0.674126,-0.702906,0.022069,0.0493795,0.597939,0.0989536,-0.122248,-0.740107,0,11597,48.382,25.96,12560
268745527,0.634768,2.223,89.0058,0.0386445,-0.0113379,0.861783,0.625584,-0.668093,0.0215985,-0.0604473,0.646421,-0.02356,-0.119462,-0.706591,0,11597,48.382,25.96,12560
268845917,0.634768,2.223,89.0088,0.0369928,-0.010862,0.862438,0.581994,-0.636576,0.0161833,-0.0228802,0.57692,0.0110762,-0.116756,-0.67641,0,11597,48.382,25.96,12560
268946352,0.634768,2.223,89.0143,0.0363537,-0.0123131,0.862364,0.537974,-0.611152,0.0173429,-0.0501367,0.535788,-0.0579678,-0.112162,-0.646717,0,11597,48.382,25.96,12560
269046693,0.634768,2.223,89.0216,0.0391519,-0.0147833,0.862739,0.501412,-0.585878,0.0182099,-0.0182405,0.471811,0.0231815,-0.107474,-0.619052,0,11597,48.382,25.96,12560
269147051,0.634768,2.223,89.0279,0.0394467,-0.0183574,0.863248,0.454428,-0.561657,0.0159135,-0.102351,0.517602,-0.114961,-0.102078,-0.591254,0,11597,48.382,25.96,12560
269247397,0.634768,2.223,89.0323,0.0417175,-0.0216425,0.86296,0.419995,-0.533185,0.00755902,0.0201104,0.499007,-0.0870529,-0.0968304,-0.566233,0,11597,48.382,25.96,12560
269347755,0.634768,2.223,89.0346,0.040777,-0.0231167,0.862642,0.371529,-0.494735,0.00372139,-0.00283091,0.592742,-0.121579,-0.0898404,-0.541829,0,11597,48.382,25.96,12560
269448098,0.634768,2.223,89.0348,0.0383832,-0.0267868,0.862247,0.337472,-0.460989,-0.00531523,0.049469,0.507309,-0.0491571,-0.0831532,-0.520768,0,11597,48.382,25.96,12560
269548461,0.634768,2.223,89.0335,0.0365047,-0.0307815,0.86139,0.304907,-0.421766,-0.005824,0.124531,0.491131,0.0014561,-0.0759169,-0.500204,0,11597,48.399,25.034,12116.2
269648876,0.634768,2.223,89.0223,0.030858,-0.0318191,0.86145,0.276918,-0.380806,-0.0190049,0.13293,0.487626,-0.0259463,-0.0706167,-0.482127,0,11597,48.399,25.034,12116.2
269749227,0.634768,2.223,89.0142,0.0257739,-0.0309015,0.861604,0.25135,-0.351662,-0.0062911,0.140378,0.37594,0.0143262,-0.0653948,-0.464692,0,11597,48.399,25.034,12116.2
269849585,0.634768,2.223,89.0082,0.0221222,-0.0274077,0.861373,0.230537,-0.317039,-0.0103435,0.143742,0.429719,-0.0558904,-0.060688,-0.449825,0,11597,48.399,25.034,12116.2
269949966,0.634768,2.223,89.0051,0.0182844,-0.0238788,0.861919,0.202706,-0.283339,-0.00443128,0.0562438,0.41943,0.0891145,2.1,4.3,0,11597,48.399,25.034,12116.2
270050345,0.634768,2.223,88.9996,0.0184971,-0.0200658,0.862195,0.181977,-0.269597,-0.001187,-0.00758605,0.21196,0.152934,2.1,4.3,0,11597,48.399,25.034,12116.2
270150712,0.634768,2.223,88.992,0.0453346,-0.0175184,0.862208,0.154273,-0.251001,-0.00129292,-0.00836686,0.396791,-0.0408432,2.1,4.3,0,11597,48.399,25.034,12116.2
270251050,0.634768,2.223,88.9917,0.0557872,-0.0184174,0.86211,0.0977047,-0.209036,0.00548773,-0.0153282,0.661667,0.140138,2.1,4.3,0,11597,48.399,25.034,12116.2
270351371,0.634768,2.223,88.9923,0.0593375,-0.017587,0.861703,0.0328165,-0.166882,0.0106091,-0.088785,0.736445,0.276604,2.1,4.3,0,11597,48.399,25.034,12116.2
270451666,0.634768,2.223,88.9938,0.0572133,-0.0182956,0.861202,-0.0191397,-0.128697,0.0162962,-0.0253655,0.630014,0.0753067,2.1,4.3,0,11597,48.399,25.034,12116.2
270551950,0.634768,2.223,88.998,0.0525962,-0.0193813,0.860341,-0.0696389,-0.0931562,0.0211356,-0.0512176,0.571659,0.0717214,2.1,4.3,0,11597,48.399,25.034,12116.2
270652287,0.634768,2.223,89.0004,0.0473674,-0.0217498,0.859077,-0.117618,-0.0528012,0.022104,-0.0110152,0.65125,-0.18471,2.1,4.3,0,11597,48.399,25.034,12116.2
270752640,0.634768,2.223,89,0.0409294,-0.0271569,0.858418,-0.151334,-0.0210129,0.0263348,0.0527081,0.449016,-0.0242427,2.1,4.3,0,11597,48.399,25.034,12116.2
270852971,0.634768,2.223,89.0006,0.0318096,-0.0338249,0.857651,-0.181184,0.0131546,0.0120733,0.0951901,0.433414,-0.158385,2.1,4.3,0,11597,48.399,25.034,12116.2
270953364,0.634768,2.223,89.0026,0.0227232,-0.0390681,0.857384,-0.196991,0.0367997,0.0030513,0.0759901,0.292811,-0.0297996,-5,2.6,0,11597,48.399,25.034,12116.2
271053714,0.634768,2.223,88.9993,0.0137496,-0.0388762,0.858192,-0.203584,0.0569592,0.00175721,0.102043,0.228631,-0.247402,-5,2.6,0,11597,48.399,25.034,12116.2
271154076,0.634768,2.223,88.9925,0.0601646,0.0899786,0.861752,-0.200798,0.0802618,0.0276695,0.188246,0.131788,0.533128,-5,2.6,0,11597,48.399,25.034,12116.2
271254427,0.634768,2.223,88.9871,0.128715,0.235504,0.873986,-0.369246,-0.00144379,0.0168785,-1.95595,0.861577,-0.236095,-5,2.6,0,11597,48.399,25.034,12116.2
271356377,0.634768,2.223,88.9791,0.184661,0.333527,0.891257,-0.741825,-0.161928,-0.0435468,-3.13136,1.60276,0.996443,-5,2.6,0,11597,48.399,25.034,12116.2
271457756,0.634768,2.223,88.9756,0.216131,0.381921,0.904071,-1.16106,-0.330667,-0.0611038,-3.63271,1.88178,1.96037,-5,2.6,0,11597,48.399,25.034,12116.2
271558109,0.634768,2.223,88.9867,0.224657,0.396617,0.909425,-1.61817,-0.512645,-0.0415193,-3.73389,1.96691,2.49206,-5,2.6,0,11597,48.421,24.761,11989.5
271658446,0.634768,2.223,88.9953,0.220674,0.394006,0.909688,-2.08405,-0.707101,-0.0120857,-3.94258,2.0474,2.22308,-5,2.6,0,11597,48.421,24.761,11989.5
271758856,0.634768,2.223,88.9892,0.212699,0.38034,0.907444,-2.51687,-0.896443,0.00389473,-3.64668,1.80497,2.10778,-5,2.6,0,11597,48.421,24.761,11989.5
271859206,0.634768,2.223,88.9857,0.20501,0.360881,0.903431,-2.93415,-1.07948,0.0276548,-3.67208,1.74965,1.77712,-5,2.6,0,11597,48.421,24.761,11989.5
271959606,0.634768,2.223,88.9906,0.199043,0.339136,0.898868,-3.31995,-1.2445,0.0281343,-3.28205,1.60478,1.80599,-4.5,0,0,11597,48.421,24.761,11989.5
272059951,0.634768,2.223,88.9895,0.167237,0.313052,0.891255,-3.68228,-1.38353,0.040741,-2.97483,1.68236,1.53683,-4.5,0,0,11597,48.421,24.761,11989.5
272160290,0.634768,2.223,88.9899,-0.0331727,0.247939,0.849035,-4.00996,-1.54911,0.138894,-2.85408,0.976139,1.38318,-4.5,0,0,11597,48.421,24.761,11989.5
272260645,0.634768,2.223,88.9949,-0.215993,0.160539,0.838475,-4.06187,-1.77134,0.118881,-1.81736,-1.40614,-0.0760415,-4.5,0,0,11597,48.421,24.761,11989.5
272361004,0.634768,2.223,88.9882,-0.29726,0.110257,0.849229,-3.92893,-2.01401,0.0154911,-0.909092,-2.82826,0.0470716,-4.5,0,0,11597,48.421,24.761,11989.5
272461352,0.634768,2.223,88.974,-0.296258,0.0846872,0.858821,-3.72408,-2.28187,-0.0129495,-0.392918,-3.04981,1.62286,-4.5,0,0,11597,48.421,24.761,11989.5
272561705,0.634768,2.223,88.9686,-0.252978,0.0745233,0.863275,-3.53026,-2.52222,-0.0272788,-0.473161,-2.88691,0.616143,-4.5,0,0,11597,48.436,24.583,11907
272662076,0.634768,2.223,88.9608,-0.198438,0.0668633,0.865571,-3.38098,-2.71794,-0.0277016,-0.367197,-2.25547,0.752941,-4.5,0,0,11597,48.436,24.583,11907
272762467,0.634768,2.223,88.9372,-0.146193,0.0656032,0.864268,-3.26796,-2.8697,-0.0283589,-0.357675,-1.71309,0.437333,-4.5,0,0,11597,48.436,24.583,11907
272862768,0.634768,2.223,88.9156,-0.104474,0.0632929,0.863156,-3.18996,-2.98685,-0.022182,-0.344157,-1.26364,0.323938,-4.5,0,0,11597,48.436,24.583,11907
272963060,0.634768,2.223,88.9146,-0.0745421,0.0611223,0.862393,-3.13588,-3.07528,-0.0122021,-0.243802,-0.893545,0.339236,-2.2,3.8,0,11597,48.436,24.583,11907
273063424,0.634768,2.223,88.9108,-0.0344834,0.0427049,0.863773,-3.09914,-3.14068,-5.39571e-05,-0.308912,-0.601149,0.472466,-2.2,3.8,0,11597,48.436,24.583,11907
273164213,0.634767,2.223,88.9061,0.13315,-0.0762816,0.859275,-3.08331,-3.15335,0.04707,0.266972,0.133604,0.432432,-2.2,3.8,0,11597,48.436,24.583,11907
273265323,0.634767,2.223,88.9038,0.275462,-0.157359,0.837814,-3.12111,-2.90587,0.0230391,1.65976,2.13821,0.113616,-2.2,3.8,0,11597,48.436,24.583,11907
273365715,0.634767,2.223,88.9028,0.361672,-0.196293,0.82022,-3.20422,-2.53815,-0.028005,2.12223,2.90945,1.48917,-2.2,3.8,0,11597,48.436,24.583,11907
273466083,0.634767,2.223,88.8971,0.401601,-0.208184,0.810679,-3.32499,-2.07478,-0.0159408,2.40608,3.52723,2.22128,-2.2,3.8,0,11597,48.436,24.583,11907
273566433,0.634767,2.223,88.8866,0.41426,-0.203082,0.808409,-3.46,-1.58883,-0.00186818,2.41124,3.73434,2.33166,-2.2,3.8,0,11597,48.436,24.583,11907
273666805,0.634767,2.223,88.8795,0.414074,-0.187634,0.810748,-3.60596,-1.11566,0.00803629,2.19607,3.61679,2.4853,-2.2,3.8,0,11597,48.436,24.583,11907
273767182,0.634767,2.223,88.8825,0.382128,-0.152445,0.821605,-3.76783,-0.655176,0.0343934,2.00144,3.76272,1.9618,-2.2,3.8,0,11597,48.436,24.583,11907
273867606,0.634767,2.223,88.8856,0.329286,-0.111344,0.834217,-3.92488,-0.268936,0.0623755,1.60885,3.19257,1.70483,-2.2,3.8,0,11597,48.436,24.583,11907
273968054,0.634767,2.223,88.8921,0.274056,-0.076574,0.844131,-4.06697,0.0235293,0.0690211,1.07646,2.62939,0.961102,-0.1,3.4,0,11597,48.436,24.583,11907
274068386,0.634767,2.223,88.9026,0.219057,-0.0652668,0.847859,-4.19044,0.245911,0.0684379,0.757782,2.01286,0.733376,-0.1,3.4,0,11597,48.436,24.583,11907
274168715,0.634767,2.223,88.925,0.142372,-0.181269,0.849709,-4.28236,0.427731,0.121333,0.906435,1.47937,0.665748,-0.1,3.4,0,11597,48.376,27.283,13198.4
274269002,0.634767,2.223,88.951,0.0805437,-0.296951,0.852111,-4.19337,0.665201,0.101634,2.44918,0.683541,0.150896,-0.1,3.4,0,11597,48.376,27.283,13198.4
274369366,0.634767,2.223,88.9649,0.048953,-0.341121,0.851802,-4.00177,0.943099,0.0653602,3.2603,0.161973,0.783149,-0.1,3.4,0,11597,48.376,27.283,13198.4
274469719,0.634767,2.223,88.9716,0.0346233,-0.332282,0.850249,-3.77343,1.22749,0.0496272,3.43744,-0.0577837,1.01891,-0.1,3.4,0,11597,48.376,27.283,13198.4
274570058,0.634767,2.223,88.9735,0.0307478,-0.289159,0.850088,-3.56552,1.47254,0.0370347,2.98042,-0.0440036,0.890551,-0.1,3.4,0,11597,48.376,27.283,13198.4
274670342,0.634767,2.223,88.9739,0.0293818,-0.235666,0.850352,-3.38493,1.68651,0.0396474,2.54357,-0.0207583,0.598925,-0.1,3.4,0,11597,48.376,27.283,13198.4
274770681,0.634767,2.223,88.9676,0.0338609,-0.184813,0.851888,-3.24655,1.84084,0.0204804,1.89341,-0.0561071,0.384146,-0.1,3.4,0,11597,48.376,27.283,13198.4
274871040,0.634767,2.223,88.9607,0.0366975,-0.142288,0.853883,-3.14089,1.95863,0.0264812,1.44446,-0.0367681,0.275828,-0.1,3.4,0,11597,48.376,27.283,13198.4
274971419,0.634766,2.223,88.9604,0.0385497,-0.112189,0.855236,-3.06244,2.05061,0.0211656,1.11446,0.00874848,0.380882,4.2,-3.3,0,11597,48.376,27.283,13198.4
275071790,0.634766,2.223,88.9572,0.0246228,-0.0935356,0.858627,-3.00047,2.11813,0.023232,0.819958,0.02839,0.0885508,4.2,-3.3,0,11597,48.376,27.283,13198.4
275172191,0.634766,2.223,88.9575,-0.118893,-0.128636,0.871682,-2.93867,2.16398,0.06502,0.745171,-0.414204,0.312516,4.2,-3.3,0,11597,48.269,27.613,13328.5
275272520,0.634766,2.223,88.9658,-0.259573,-0.175283,0.884111,-2.70264,2.121,0.0623493,1.22353,-2.12864,0.458299,4.2,-3.3,0,11597,48.269,27.613,13328.5
275372863,0.634766,2.223,88.972,-0.341816,-0.211678,0.894943,-2.26171,2.01811,0.00165784,1.694,-3.23832,1.20499,4.2,-3.3,0,11597,48.269,27.613,13328.5
275473235,0.634766,2.223,88.9699,-0.379479,-0.233699,0.900323,-1.90189,1.93473,-0.0176027,1.96717,-3.58917,1.93506,4.2,-3.3,0,11597,48.269,27.613,13328.5
275573596,0.634766,2.223,88.9619,-0.395759,-0.239669,0.901047,-1.31063,1.8139,-0.0266397,2.26494,-3.95948,2.05021,4.2,-3.3,0,11597,48.269,27.613,13328.5
275673897,0.634766,2.223,88.9519,-0.391807,-0.235488,0.89674,-0.830909,1.68412,-0.023636,1.86141,-3.79046,2.23786,4.2,-3.3,0,11597,48.269,27.613,13328.5
275774144,0.634766,2.223,88.9411,-0.375014,-0.228858,0.891819,-0.341545,1.56563,-0.00816628,2.04341,-3.73752,2.32545,4.2,-3.3,0,11597,48.269,27.613,13328.5
275874465,0.634766,2.223,88.9351,-0.353129,-0.229116,0.890001,0.101123,1.4479,-0.000643347,1.88585,-3.52367,1.85703,4.2,-3.3,0,11597,48.269,27.613,13328.5
275974779,0.634766,2.223,88.9402,-0.334019,-0.23286,0.890456,0.528216,1.35135,0.00888758,1.89701,-3.30328,1.75937,-2.5,-3.2,0,11597,48.269,27.613,13328.5
276075116,0.634766,2.223,88.9494,-0.311945,-0.210926,0.885767,0.936769,1.27253,0.0341871,1.90088,-2.94235,1.98224,-2.5,-3.2,0,11597,48.269,27.613,13328.5
276175408,0.634766,2.223,88.9653,-0.27163,0.0189195,0.856169,1.31813,1.1674,0.185242,1.19717,-2.73398,2.33179,-2.5,-3.2,0,11597,48.283,28.358,13692.1
276275765,0.634766,2.223,88.99,-0.236807,0.245794,0.82969,1.38251,0.840325,0.194691,-2.33617,-2.46606,-0.168207,-2.5,-3.2,0,11597,48.283,28.358,13692.1
276376142,0.634766,2.223,89.0049,-0.220474,0.3559,0.812983,1.3023,0.448879,0.04903,-3.54838,-1.88329,0.633733,-2.5,-3.2,0,11597,48.283,28.358,13692.1
276476465,0.634766,2.223,89.0258,-0.221696,0.397953,0.803864,1.15788,-0.0231166,-0.00706163,-4.24147,-1.79067,1.68528,-2.5,-3.2,0,11597,48.283,28.358,13692.1
276576834,0.634766,2.223,89.0786,-0.236586,0.408827,0.797974,1.00476,-0.515507,-0.0239746,-4.3065,-1.88604,1.6931,-2.5,-3.2,0,11597,48.283,28.358,13692.1
276677169,0.634766,2.223,89.1108,-0.252361,0.404329,0.792885,0.852885,-1.00731,-0.0615939,-4.15777,-1.91911,1.96616,-2.5,-3.2,0,11597,48.283,28.358,13692.1
276777584,0.634767,2.223,89.0687,-0.262181,0.383509,0.791475,0.713654,-1.513,-0.0701648,-4.17167,-2.06512,1.95918,-2.5,-3.2,0,11597,48.283,28.358,13692.1
276877912,0.634767,2.223,89.0376,-0.267835,0.342993,0.797297,0.596362,-2.01419,-0.0775203,-3.91832,-2.17332,2.14131,-2.5,-3.2,0,11597,48.283,28.358,13692.1
276978334,0.634767,2.223,89.0379,-0.247164,0.277012,0.812311,0.513792,-2.47801,-0.057589,-3.35124,-2.12003,1.93797,-4.8,-4.8,0,11597,48.283,28.358,13692.1
277078705,0.634767,2.223,89.0337,-0.224603,0.225819,0.823908,0.474989,-2.85049,-0.009801,-2.35221,-1.91309,1.75261,-4.8,-4.8,0,11597,48.283,28.358,13692.1
277179061,0.634767,2.223,89.013,-0.228297,0.243329,0.826277,0.44275,-3.17122,-0.00193748,-2.42738,-1.897,0.567635,-4.8,-4.8,0,11520,48.327,26.678,12892.7
277279436,0.634766,2.223,88.9903,-0.241867,0.260887,0.824781,0.395694,-3.51158,-0.040842,-2.5266,-1.82285,1.0182,-4.8,-4.8,0,11520,48.327,26.678,12892.7
277379811,0.634766,2.223,88.9873,-0.255711,0.269399,0.822477,0.355176,-3.88469,-0.032149,-2.70501,-1.97447,1.29753,-4.8,-4.8,0,11520,48.327,26.678,12892.7
277480190,0.634766,2.223,88.9826,-0.262405,0.267641,0.821605,0.318146,-4.25482,-0.0207268,-2.62993,-2.01722,1.39868,-4.8,-4.8,0,11520,48.327,26.678,12892.7
277580509,0.634766,2.223,88.9749,-0.271126,0.25964,0.822166,0.284449,-4.61926,-0.0221847,-2.56739,-2.00201,1.43371,-4.8,-4.8,0,11520,48.327,26.678,12892.7
277680874,0.634766,2.223,88.9671,-0.274912,0.245199,0.824717,0.26283,-4.98376,-0.00865199,-2.44999,-1.98744,1.59658,-4.8,-4.8,0,11520,48.327,26.678,12892.7
277781188,0.634766,2.223,88.9703,-0.253908,0.21291,0.832636,0.259176,-5.3229,0.00833416,-2.2628,-2.00176,1.23084,-4.8,-4.8,0,11520,48.327,26.678,12892.7
277881524,0.634766,2.223,88.9772,-0.226673,0.177626,0.840858,0.272594,-5.60403,0.0273717,-1.80413,-1.79344,0.898795,-4.8,-4.8,0,11520,48.327,26.678,12892.7
277981942,0.634766,2.223,88.9897,-0.199543,0.143962,0.847787,0.288567,-5.82873,0.0397353,-1.46935,-1.48003,0.403698,4.4,-2.3,0,11520,48.327,26.678,12892.7
278082305,0.634766,2.223,89.0023,-0.162222,0.084197,0.857751,0.296193,-6.00571,0.0466963,-1.22835,-1.19611,0.697853,4.4,-2.3,0,11520,48.327,26.678,12892.7
278182689,0.634766,2.223,89.0221,-0.0484062,-0.1573,0.863173,0.326121,-6.10515,0.117183,-0.155467,-0.695817,0.304295,4.4,-2.3,0,11520,48.279,27.353,13205.8
278283000,0.634766,2.223,89.043,0.0567883,-0.359481,0.851358,0.441786,-5.86095,0.0708736,2.9221,0.802901,-0.0178796,4.4,-2.3,0,11520,48.279,27.353,13205.8
278383361,0.634766,2.223,89.0477,0.112705,-0.460521,0.839605,0.615818,-5.44409,-0.0190282,4.18476,1.31228,1.49053,4.4,-2.3,0,11520,48.279,27.353,13205.8
278483700,0.634767,2.223,89.0389,0.138385,-0.498329,0.83467,0.827291,-4.91612,-0.0455597,4.6604,1.60192,2.69611,4.4,-2.3,0,11520,48.279,27.353,13205.8
278584097,0.634767,2.223,89.0249,0.14406,-0.501552,0.835585,1.03671,-4.34329,-0.0459193,4.79309,1.78871,3.04046,4.4,-2.3,0,11520,48.279,27.353,13205.8
278684453,0.634767,2.223,89.0062,0.135649,-0.489999,0.839698,1.21696,-3.79852,-0.084756,4.38465,1.83914,2.66423,4.4,-2.3,0,11520,48.279,27.353,13205.8
278784857,0.634767,2.223,88.98,0.118558,-0.475054,0.843854,1.42838,-3.23556,-0.0551102,4.62647,1.66929,2.9506,4.4,-2.3,0,11520,48.279,27.353,13205.8
278885232,0.634767,2.223,88.9623,0.0940927,-0.457864,0.84838,1.63914,-2.707,-0.0402677,4.41956,1.48064,2.62284,4.4,-2.3,0,11520,48.279,27.353,13205.8
278985653,0.634767,2.223,88.9591,0.0699142,-0.44181,0.852143,1.84283,-2.21771,-0.0281349,4.24643,1.3476,2.15137,-3.8,-3.3,0,11520,48.279,27.353,13205.8
279085985,0.634767,2.223,88.961,0.0487331,-0.419165,0.855502,2.05764,-1.77329,-0.0140988,3.88442,0.987595,2.15048,-3.8,-3.3,0,11520,48.279,27.353,13205.8
279186371,0.634767,2.223,88.9715,0.0114492,-0.212289,0.863723,2.28924,-1.35089,0.0386692,3.73725,0.746946,2.12926,-3.8,-3.3,0,11520,48.279,27.353,13205.8
279286735,0.634767,2.223,88.9931,-0.0442537,0.123089,0.859772,2.3309,-1.22013,0.123874,0.414069,0.296325,0.140473,-3.8,-3.3,0,11507,48.211,29.029,13995.2
279387070,0.634767,2.223,89.0126,-0.0860578,0.330214,0.845809,2.18134,-1.41187,0.0696306,-2.90248,-0.346144,0.0881959,-3.8,-3.3,0,11507,48.211,29.029,13995.2
279487449,0.634767,2.223,89.0406,-0.114244,0.440102,0.833653,1.95948,-1.74237,0.0322775,-4.09424,-0.569672,1.40216,-3.8,-3.3,0,11507,48.211,29.029,13995.2
279587865,0.634767,2.223,89.1035,-0.128725,0.480797,0.828348,1.69556,-2.16361,0.0142463,-4.63273,-0.761458,2.12063,-3.8,-3.3,0,11507,48.211,29.029,13995.2
279688284,0.634767,2.223,89.1513,-0.130195,0.483884,0.827441,1.42364,-2.60578,0.00538752,-4.82719,-0.75445,2.02897,-3.8,-3.3,0,11507,48.211,29.029,13995.2
279788649,0.634767,2.223,89.1435,-0.128138,0.471566,0.828371,1.14724,-3.02848,-0.0201991,-4.60348,-0.644458,2.11673,-3.8,-3.3,0,11507,48.211,29.029,13995.2
279888995,0.634767,2.223,89.1411,-0.12017,0.43517,0.831806,0.874753,-3.45374,-0.02773,-4.51671,-0.648477,2.07736,-3.8,-3.3,0,11507,48.211,29.029,13995.2
279989381,0.634767,2.223,89.1568,-0.103922,0.365796,0.838974,0.622578,-3.83418,-0.018999,-4.02274,-0.445513,1.5241,2.3,-0.3,0,11507,48.211,29.029,13995.2
280089717,0.634767,2.223,89.1587,-0.0828745,0.274031,0.84858,0.4211,-4.13673,-0.0218251,-3.10749,-0.338392,1.16528,2.3,-0.3,0,11507,48.211,29.029,13995.2
