timestamp,lat,log,alt,roll,pitch,yaw,vel_x,vel_y,vel_z,acc_x,acc_y,acc_z,act_vx,act_vy,act_yr,capacity,vol,cur,power
128842864,0.634769,2.223,88.5852,0.0389008,-0.00887495,0.991761,-0.112059,-0.013713,-0.0658542,-0.0249356,0.127185,0.131294,0.5,4.7,0,12178,49.253,26.029,12820.1
128943262,0.634769,2.223,88.5793,0.0369687,-0.00900801,0.991654,-0.109397,-0.0176165,-0.0596835,-0.0973119,-0.0252067,0.125373,0.5,4.7,0,12178,49.253,26.029,12820.1
129043655,0.634769,2.223,88.5845,0.0394776,-0.0104363,0.990701,-0.0909457,-0.030376,-0.0563141,-0.067927,-0.170688,0.00574208,0.5,4.7,0,12178,49.253,26.029,12820.1
129144088,0.634769,2.223,88.5931,0.143625,-0.0177354,0.987762,-0.0927554,-0.0240055,-0.0223191,0.0357605,0.264495,0.213118,0.5,4.7,0,12178,49.253,26.029,12820.1
129244452,0.634769,2.223,88.594,0.291824,-0.0333325,0.986383,-0.20872,0.0831079,-0.070909,0.306339,1.86881,-0.18676,0.5,4.7,0,12178,49.253,26.029,12820.1
129344823,0.634769,2.223,88.5984,0.375753,-0.0418161,0.984533,-0.434835,0.269783,-0.0756613,0.324951,2.83814,1.23032,0.5,4.7,0,12134,49.242,25.855,12731.5
129445186,0.634769,2.223,88.6033,0.428854,-0.0468302,0.982773,-0.730425,0.508428,-0.0745769,0.314214,3.62054,1.30579,0.5,4.7,0,12134,49.242,25.855,12731.5
129545525,0.634769,2.223,88.6159,0.446598,-0.0498786,0.981953,-1.04622,0.757971,-0.0746969,0.258278,3.51804,2.08074,0.5,4.7,0,12134,49.242,25.855,12731.5
129645867,0.634769,2.223,88.6294,0.447342,-0.0511319,0.981872,-1.37102,1.03174,-0.0645149,0.381358,3.71563,1.82839,0.5,4.7,0,12134,49.242,25.855,12731.5
129746180,0.634769,2.223,88.6715,0.442711,-0.0511639,0.981613,-1.68434,1.30113,-0.0670314,0.407993,3.77074,1.55907,0.5,4.7,0,12134,49.242,25.855,12731.5
129846600,0.634769,2.223,88.6838,0.43455,-0.0517197,0.981197,-1.98654,1.5546,-0.0810692,0.321057,3.54064,1.49479,1.6,-3.2,0,12134,49.242,25.855,12731.5
129946899,0.634769,2.223,88.7079,0.401223,-0.0543078,0.985099,-2.28552,1.80818,-0.0766829,0.361374,3.66729,1.04613,1.6,-3.2,0,12134,49.242,25.855,12731.5
130047250,0.634769,2.223,88.7331,0.139975,-0.0701494,0.998245,-2.52461,2.03794,-0.0381626,0.444424,2.6285,1.17706,1.6,-3.2,0,12134,49.242,25.855,12731.5
130147594,0.634769,2.223,88.7562,-0.189552,-0.0802389,1.00475,-2.45742,2.08637,-0.00621066,0.555532,-0.94453,0.0814552,1.6,-3.2,0,12134,49.242,25.855,12731.5
130247936,0.634769,2.223,88.7762,-0.367988,-0.0876679,1.00857,-2.12331,1.97379,-0.080138,0.686057,-3.66253,0.361406,1.6,-3.2,0,12134,49.242,25.855,12731.5
130348395,0.634769,2.223,88.7869,-0.455838,-0.089259,1.0102,-1.67885,1.79813,-0.155146,0.763806,-4.75732,1.37722,1.6,-3.2,0,12134,49.242,25.855,12731.5
130450543,0.634769,2.223,88.8113,-0.484433,-0.0861804,1.00826,-1.15796,1.56855,-0.186701,0.678107,-5.34009,1.80038,1.6,-3.2,0,12134,49.236,25.765,12685.7
130555980,0.634769,2.223,88.8312,-0.482203,-0.0802532,1.00445,-0.614534,1.32208,-0.221182,0.617013,-5.17665,2.53259,1.6,-3.2,0,12134,49.236,25.765,12685.7
130656398,0.634769,2.223,88.8372,-0.472445,-0.0771018,1.00201,-0.0807998,1.06168,-0.228968,0.43705,-5.02398,2.67169,1.6,-3.2,0,12134,49.236,25.765,12685.7
130756757,0.634769,2.223,88.853,-0.454666,-0.0782928,1.00193,0.44978,0.804872,-0.240036,0.538702,-5.11941,2.21716,1.6,-3.2,0,12134,49.236,25.765,12685.7
130857164,0.634769,2.223,88.8356,-0.438701,-0.0834459,1.00375,0.964795,0.552069,-0.242151,0.48556,-4.68334,2.75229,-0.9,0.9,0,12134,49.236,25.765,12685.7
130957498,0.634769,2.223,88.8179,-0.408469,-0.0852316,1.00313,1.46765,0.308041,-0.227941,0.50957,-4.48867,2.53229,-0.9,0.9,0,12134,49.236,25.765,12685.7
131057863,0.634769,2.223,88.7635,-0.238874,0.0181488,0.989409,1.96888,0.0735639,-0.130259,0.500959,-4.33003,2.47159,-0.9,0.9,0,12134,49.236,25.765,12685.7
131158201,0.634769,2.223,88.7369,0.0936115,0.148734,1.00241,2.13077,-0.138619,-0.106556,-1.04998,-1.48591,0.134659,-0.9,0.9,0,12134,49.236,25.765,12685.7
131258616,0.634769,2.223,88.7285,0.306945,0.203458,1.02432,1.91306,-0.246405,-0.153671,-2.03656,1.8239,0.466551,-0.9,0.9,0,12134,49.236,25.765,12685.7
131358973,0.634769,2.223,88.6967,0.417175,0.225195,1.03777,1.50581,-0.305872,-0.189443,-2.42332,3.20185,1.89208,-0.9,0.9,0,12134,49.236,25.765,12685.7
131459366,0.634769,2.223,88.699,0.457204,0.229598,1.04186,0.990215,-0.326868,-0.176838,-2.44101,3.76985,2.87563,-0.9,0.9,0,12134,49.186,27.6,13575.3
131559716,0.634769,2.223,88.7204,0.435412,0.209872,1.03252,0.442204,-0.324426,-0.147615,-2.40911,4.09255,2.61614,-0.9,0.9,0,12134,49.186,27.6,13575.3
131660072,0.634769,2.223,88.7401,0.370012,0.174724,1.01897,-0.0389057,-0.309347,-0.122976,-2.03017,3.71504,1.78871,-0.9,0.9,0,12134,49.186,27.6,13575.3
131760401,0.634769,2.223,88.7467,0.301528,0.134795,1.00754,-0.425875,-0.306383,-0.117113,-1.70375,3.01022,1.14266,-0.9,0.9,0,12134,49.186,27.6,13575.3
131860820,0.634769,2.223,88.7585,0.23812,0.0959805,0.999634,-0.73058,-0.297455,-0.101391,-1.21883,2.28056,0.764057,-1.6,0.5,0,12134,49.186,27.6,13575.3
131961178,0.634769,2.223,88.7616,0.175283,0.073146,0.994113,-0.992352,-0.285098,-0.118684,-0.698778,1.56581,-0.258508,-1.6,0.5,0,12134,49.186,27.6,13575.3
132061577,0.634769,2.223,88.7368,0.0989377,0.103616,0.991295,-1.12226,-0.296059,-0.119009,-0.813293,0.911811,0.570749,-1.6,0.5,0,12134,49.186,27.6,13575.3
132161947,0.634769,2.223,88.7209,0.0457181,0.120634,0.991259,-1.27365,-0.391829,-0.111563,-1.17345,0.2407,-0.122733,-1.6,0.5,0,12134,49.186,27.6,13575.3
132262293,0.634769,2.223,88.7107,0.0136895,0.126011,0.991062,-1.35759,-0.504803,-0.119867,-1.2252,-0.251073,0.246919,-1.6,0.5,0,12134,49.186,27.6,13575.3
132362692,0.634769,2.223,88.6857,-0.000451772,0.117533,0.991893,-1.41861,-0.624565,-0.112881,-1.21484,-0.477785,0.222578,-1.6,0.5,0,12134,49.186,27.6,13575.3
132463036,0.634769,2.223,88.6458,-0.00213244,0.10189,0.992134,-1.46431,-0.73383,-0.106115,-1.08416,-0.542471,0.232699,-1.6,0.5,0,12134,49.088,29.267,14366.6
132563448,0.634769,2.223,88.6203,-0.00123608,0.0832896,0.992632,-1.50279,-0.821684,-0.113005,-0.899007,-0.427198,0.351186,-1.6,0.5,0,12134,49.088,29.267,14366.6
132663840,0.634769,2.223,88.5953,0.000829703,0.0678931,0.992973,-1.52619,-0.890848,-0.0916017,-0.725327,-0.451578,0.395561,-1.6,0.5,0,12134,49.088,29.267,14366.6
132764262,0.634769,2.223,88.5727,0.00602021,0.0540373,0.992911,-1.5337,-0.939126,-0.0924303,-0.49525,-0.339858,0.0687898,-1.6,0.5,0,12134,49.088,29.267,14366.6
132864712,0.634769,2.223,88.5486,0.00897507,0.0459896,0.99327,-1.53511,-0.97935,-0.067384,-0.417034,-0.408944,0.14883,-4.8,2.8,0,12134,49.088,29.267,14366.6
132965059,0.634769,2.223,88.5297,0.0273898,0.0634382,0.996405,-1.53223,-1.00918,-0.0562535,-0.216915,-0.387834,0.306182,-4.8,2.8,0,12134,49.088,29.267,14366.6
133065357,0.634769,2.223,88.5048,0.112231,0.17171,1.005,-1.58319,-1.05573,-0.0329311,-1.03815,0.27044,-0.182556,-4.8,2.8,0,12134,49.088,29.267,14366.6
133165726,0.634768,2.223,88.5041,0.190701,0.259254,1.01907,-1.76135,-1.15483,-0.0588305,-1.99232,0.950759,0.344977,-4.8,2.8,0,12134,49.088,29.267,14366.6
133266070,0.634768,2.223,88.4918,0.240435,0.309422,1.03072,-2.05124,-1.28782,-0.0617059,-2.58564,1.46272,1.4141,-4.8,2.8,0,12134,49.088,29.267,14366.6
133366340,0.634768,2.223,88.4786,0.266157,0.332709,1.03727,-2.40838,-1.43973,-0.0447972,-3.06323,1.84872,1.58123,-4.8,2.8,0,12134,49.088,29.267,14366.6
133466671,0.634768,2.223,88.4582,0.273846,0.339687,1.03897,-2.78811,-1.58572,-0.0291116,-3.12329,2.0071,1.76305,-4.8,2.8,0,12090,49.021,31.672,15525.9
133566924,0.634768,2.223,88.4557,0.275362,0.339054,1.03794,-3.16918,-1.73472,-0.0200133,-2.9918,1.901,2.06991,-4.8,2.8,0,12090,49.021,31.672,15525.9
133667143,0.634768,2.223,88.4725,0.26823,0.33154,1.03556,-3.54419,-1.87535,-0.0134464,-3.00678,2.00452,1.56679,-4.8,2.8,0,12090,49.021,31.672,15525.9
133767520,0.634768,2.223,88.4847,0.243897,0.297708,1.02639,-3.90277,-2.02047,-0.010631,-2.88971,1.76188,1.4918,-4.8,2.8,0,12090,49.021,31.672,15525.9
133867972,0.634768,2.223,88.5164,0.211776,0.254994,1.01719,-4.22272,-2.13619,0.0066912,-2.4871,1.66168,1.33511,0,4.1,0,12090,49.021,31.672,15525.9
133968390,0.634768,2.223,88.5475,0.186566,0.17624,1.00987,-4.46259,-2.22677,0.0124206,-1.99858,1.18839,0.707708,0,4.1,0,12090,49.021,31.672,15525.9
134068803,0.634768,2.223,88.5865,0.194817,-0.0864243,0.991286,-4.65005,-2.23414,0.0997659,-0.66115,1.13483,0.798029,0,4.1,0,12090,49.021,31.672,15525.9
134174424,0.634768,2.223,88.6315,0.194129,-0.277256,0.968853,-4.647,-1.98538,0.0678153,2.45078,1.19343,-0.54948,0,4.1,0,12090,49.021,31.672,15525.9
134274789,0.634768,2.223,88.6643,0.200647,-0.379811,0.951947,-4.56397,-1.6245,-0.0288092,3.6042,1.03927,0.608236,0,4.1,0,12090,49.021,31.672,15525.9
134375152,0.634768,2.223,88.6837,0.202537,-0.421073,0.943359,-4.42018,-1.15037,-0.0398654,4.27013,0.892197,2.01523,0,4.1,0,12090,49.021,31.672,15525.9
134475488,0.634768,2.223,88.7516,0.204493,-0.428505,0.937707,-4.26063,-0.675417,-0.0832042,4.43839,0.977773,1.50843,0,4.1,0,12090,49.066,28.461,13964.7
134575764,0.634768,2.223,88.7699,0.20725,-0.418366,0.935162,-4.09702,-0.179299,-0.0962429,4.31433,0.933619,2.20072,0,4.1,0,12090,49.066,28.461,13964.7
134675975,0.634768,2.223,88.7757,0.207983,-0.384941,0.937369,-3.94537,0.300987,-0.128842,4.24741,1.07727,1.78567,0,4.1,0,12090,49.066,28.461,13964.7
134776469,0.634767,2.223,88.7574,0.195335,-0.324309,0.948127,-3.80466,0.740983,-0.140846,3.92031,1.03817,0.976329,0,4.1,0,12090,49.066,28.461,13964.7
134878635,0.634767,2.223,88.7512,0.183287,-0.255328,0.959102,-3.69995,1.11882,-0.146965,3.1051,1.02175,1.24143,-4.1,-1.1,0,12090,49.066,28.461,13964.7
134979882,0.634767,2.223,88.7263,0.157678,-0.182248,0.971924,-3.61717,1.41958,-0.147816,2.43033,0.811109,0.685621,-4.1,-1.1,0,12090,49.066,28.461,13964.7
135080324,0.634767,2.223,88.671,-0.0147489,-0.0148292,0.989641,-3.56577,1.65907,-0.104032,1.73989,0.648907,0.502193,-4.1,-1.1,0,12090,49.066,28.461,13964.7
135180753,0.634767,2.223,88.639,-0.212822,0.159907,0.972467,-3.43165,1.56953,-0.0880816,-0.635618,-1.86619,0.431454,-4.1,-1.1,0,12090,49.066,28.461,13964.7
135281123,0.634767,2.223,88.6041,-0.317895,0.247806,0.951285,-3.22867,1.25014,-0.148577,-1.81274,-3.16144,1.45941,-4.1,-1.1,0,12090,49.066,28.461,13964.7
135381519,0.634767,2.223,88.5866,-0.368387,0.292044,0.938649,-2.99731,0.797702,-0.18382,-2.58328,-3.93724,2.14297,-4.1,-1.1,0,12090,49.066,28.461,13964.7
135481866,0.634767,2.223,88.6048,-0.379101,0.307942,0.936157,-2.74868,0.2548,-0.170319,-2.81316,-4.05636,3.07038,-4.1,-1.1,0,12090,49.066,28.461,13964.7
135582206,0.634767,2.223,88.6141,-0.368017,0.310856,0.938181,-2.49689,-0.296328,-0.161587,-2.84053,-4.27051,2.65194,-4.1,-1.1,0,12045,49.028,30.044,14730
135682538,0.634767,2.223,88.6117,-0.344672,0.313239,0.940555,-2.26777,-0.819496,-0.158677,-2.64346,-3.81122,2.91039,-4.1,-1.1,0,12045,49.028,30.044,14730
135782835,0.634767,2.223,88.6154,-0.321244,0.318152,0.943113,-2.06413,-1.36088,-0.133251,-2.83014,-3.75038,2.60782,-4.1,-1.1,0,12045,49.028,30.044,14730
135883253,0.634767,2.223,88.6112,-0.295521,0.32255,0.945249,-1.89167,-1.88457,-0.130639,-2.88168,-3.41426,2.35284,4.8,3.3,0,12045,49.028,30.044,14730
135983625,0.634767,2.223,88.6083,-0.238329,0.286348,0.95985,-1.74257,-2.49415,-0.0985942,-2.83588,-2.94722,2.08329,4.8,3.3,0,12045,49.028,30.044,14730
136083989,0.634767,2.223,88.6174,-0.088543,0.0667291,0.987982,-1.64714,-2.88009,-0.0138206,-1.8122,-2.09011,1.3164,4.8,3.3,0,12045,49.028,30.044,14730
136184360,0.634767,2.223,88.6256,0.0969585,-0.199456,0.977762,-1.54718,-2.86073,0.0341556,1.56562,-0.0460585,-0.203528,4.8,3.3,0,12045,49.028,30.044,14730
136284728,0.634767,2.223,88.6298,0.203613,-0.337053,0.956632,-1.47948,-2.58431,-0.0497228,3.30293,1.32603,0.500899,4.8,3.3,0,12045,49.028,30.044,14730
136385067,0.634767,2.223,88.6414,0.259102,-0.403046,0.942822,-1.41589,-2.16525,-0.0881321,3.98853,1.81815,2.08699,4.8,3.3,0,12045,49.028,30.044,14730
136485437,0.634767,2.223,88.7143,0.270226,-0.425014,0.93966,-1.36491,-1.67785,-0.0887912,4.33649,2.15361,2.21118,4.8,3.3,0,12045,49.028,30.044,14730
136585763,0.634767,2.223,88.7578,0.260073,-0.422625,0.942465,-1.32206,-1.18536,-0.0910322,4.40955,2.17627,2.03948,4.8,3.3,0,12000,49.078,27.336,13416
136686124,0.634767,2.223,88.7834,0.248052,-0.41786,0.944644,-1.26329,-0.709895,-0.0838564,4.2543,1.86338,2.01646,4.8,3.3,0,12000,49.078,27.336,13416
136786390,0.634767,2.223,88.8041,0.233556,-0.410415,0.948381,-1.20206,-0.255138,-0.10631,4.10775,1.79068,1.94754,4.8,3.3,0,12000,49.078,27.336,13416
136886592,0.634767,2.223,88.7863,0.22336,-0.400256,0.95096,-1.14062,0.200493,-0.10776,3.92485,1.70839,1.95134,0.1,3.6,0,12000,49.078,27.336,13416
136986797,0.634767,2.223,88.7588,0.224204,-0.364765,0.958287,-1.07121,0.635609,-0.114831,3.88635,1.54283,1.78318,0.1,3.6,0,12000,49.078,27.336,13416
137087103,0.634767,2.223,88.7403,0.296845,-0.185945,0.962982,-1.03834,1.06734,-0.0200982,3.27476,1.87328,1.49758,0.1,3.6,0,12000,49.078,27.336,13416
137187629,0.634767,2.223,88.7152,0.372581,-0.0368164,0.977871,-1.21585,1.31061,-0.0727909,0.938603,2.88972,0.484387,0.1,3.6,0,12000,49.078,27.336,13416
137288081,0.634767,2.223,88.6608,0.396728,0.0463745,1.0007,-1.50487,1.48829,-0.150357,-0.161143,3.34228,0.9281,0.1,3.6,0,12000,49.078,27.336,13416
137388432,0.634767,2.223,88.6226,0.375848,0.0817894,1.01166,-1.84668,1.61247,-0.161441,-0.774933,3.10083,1.78688,0.1,3.6,0,12000,49.078,27.336,13416
137488626,0.634767,2.223,88.5899,0.327252,0.0809741,1.01316,-2.18022,1.69974,-0.138734,-0.986103,3.04775,1.24861,0.1,3.6,0,12000,49.078,27.336,13416
137588861,0.634767,2.223,88.551,0.273982,0.0654168,1.0097,-2.44298,1.7533,-0.124609,-0.845656,2.27207,1.26139,0.1,3.6,0,12000,49.035,30.462,14937
137689524,0.634767,2.223,88.524,0.225576,0.046679,1.00527,-2.64946,1.8018,-0.0946112,-0.619524,1.86039,0.969612,0.1,3.6,0,12000,49.035,30.462,14937
137789772,0.634767,2.223,88.5171,0.18935,0.0297258,1.00063,-2.78783,1.82436,-0.0826032,-0.492929,1.36482,0.521116,0.1,3.6,0,12000,49.035,30.462,14937
137890155,0.634767,2.223,88.5137,0.164575,0.0143768,0.997461,-2.8805,1.85266,-0.057813,-0.245807,1.07307,0.438096,3.29385,-4.17608,0,12000,49.035,30.462,14937
137990484,0.634767,2.223,88.4861,0.115641,0.0046109,0.996117,-2.94433,1.8805,-0.037986,-0.0874501,0.911112,0.23753,3.29813,-4.29407,0,12000,49.035,30.462,14937
138090867,0.634766,2.223,88.4851,-0.043816,0.00615029,0.993795,-2.9566,1.87619,-0.00219493,-0.0561443,-0.00113873,0.636071,3.31346,-4.40624,0,12000,49.035,30.462,14937
138191223,0.634766,2.223,88.4952,-0.162598,0.00603154,0.991125,-2.80276,1.75855,0.00126585,-0.111468,-1.82122,-0.188485,3.32775,-4.52079,0,12000,49.035,30.462,14937
138291570,0.634766,2.223,88.5119,-0.245763,0.00411569,0.98918,-2.55995,1.5901,-0.019506,-0.0347998,-2.76977,0.325762,3.34619,-4.60665,0,12000,49.035,30.462,14937
138392309,0.634766,2.223,88.5407,-0.281921,0.00141326,0.988507,-2.26318,1.38152,-0.018988,-0.0974946,-3.14607,1.02581,3.35555,-4.69693,0,12000,49.035,30.462,14937
138493759,0.634766,2.223,88.5539,-0.288062,-0.00288973,0.989743,-1.94294,1.1689,-0.0303063,-0.0351393,-3.40709,0.71309,3.36074,-4.7577,0,12000,49.035,30.462,14937
138594148,0.634766,2.223,88.5609,-0.27427,-0.0056862,0.989277,-1.6123,0.957441,-0.0488746,0.0408154,-3.56819,0.36779,3.36926,-4.81154,0,12000,48.935,29.662,14515.1
138694545,0.634766,2.223,88.5311,-0.245182,-0.00499628,0.98893,-1.30471,0.764967,-0.045901,0.0737824,-3.16582,0.571856,3.37685,-4.85467,0,12000,48.935,29.662,14515.1
138794924,0.634766,2.223,88.4965,-0.209222,-0.00542132,0.989894,-1.02687,0.579599,-0.061491,0.0325513,-2.85842,0.837698,3.38597,-4.85305,0,12000,48.935,29.662,14515.1
138895328,0.634766,2.223,88.4816,-0.172319,-0.00540871,0.990011,-0.780174,0.416809,-0.0410474,-0.00251548,-2.4162,0.807477,3.39957,-4.83853,0,12000,48.935,29.662,14515.1
138995633,0.634766,2.223,88.4797,-0.130284,-0.00903026,0.990233,-0.570291,0.282869,-0.0245629,0.109969,-2.00466,0.36779,3.40843,-4.83264,0,12000,48.935,29.662,14515.1
139095905,0.634766,2.223,88.4341,-0.162674,-0.0749786,0.994558,-0.398329,0.174896,-0.0163871,0.193712,-1.64961,0.478921,3.39484,-4.80395,0,12000,48.935,29.662,14515.1
139196393,0.634766,2.223,88.4183,-0.236269,-0.147368,1.00677,-0.130867,0.106581,-0.00812059,1.04314,-2.33832,0.714807,3.32164,-4.78465,0,12000,48.935,29.662,14515.1
139296776,0.634766,2.223,88.3977,-0.293719,-0.200971,1.02013,0.230423,0.0459962,-0.0297285,1.61643,-2.99941,1.08027,3.24214,-4.74242,0,12000,48.935,29.662,14515.1
139397108,0.634766,2.223,88.3963,-0.32489,-0.232264,1.02915,0.663408,0.0130988,-0.019784,2.08915,-3.29907,1.69798,3.18181,-4.69983,0,12000,48.935,29.662,14515.1
139497507,0.634766,2.223,88.3702,-0.334276,-0.246757,1.03331,1.13087,-0.00981197,-0.0122822,2.3104,-3.44207,1.95498,3.14822,-4.64862,0,12000,48.935,29.662,14515.1
139599588,0.634766,2.223,88.363,-0.329466,-0.252908,1.03373,1.60057,-0.0229537,0.00370333,2.38155,-3.31797,2.04108,3.13719,-4.56737,0,12000,48.864,30.36,14835.1
139705898,0.634766,2.223,88.3649,-0.318914,-0.255606,1.03381,2.14536,-0.0341145,0.0313103,2.29656,-3.28615,1.86191,3.11737,-4.4921,0,12000,48.864,30.36,14835.1
139806381,0.634766,2.223,88.367,-0.307672,-0.259446,1.03331,2.57076,-0.0315587,0.045965,2.30851,-3.06584,1.82517,3.0937,-4.38911,0,12000,48.864,30.36,14835.1
139906914,0.634766,2.223,88.3912,-0.297362,-0.262603,1.03285,2.98615,-0.020133,0.0486808,2.31727,-2.90403,1.69554,3.06091,-4.27485,0,12000,48.864,30.36,14835.1
140007319,0.634767,2.223,88.41,-0.283746,-0.268336,1.03308,3.38085,-0.00437654,0.0482715,2.41827,-2.82681,1.33193,3.00883,-4.14851,0,12000,48.864,30.36,14835.1
140107729,0.634767,2.223,88.4608,-0.259029,-0.267063,1.03014,3.76522,0.0195304,0.0512038,2.48963,-2.76435,1.13932,2.97167,-4.00929,0,12000,48.864,30.36,14835.1
140208106,0.634767,2.223,88.4875,-0.205354,-0.243966,1.0205,4.10033,0.0481105,0.0463971,2.26689,-2.24229,0.838422,2.96645,-3.86805,0,12000,48.864,30.36,14835.1
140308431,0.634767,2.223,88.4944,-0.140874,-0.207867,1.01088,4.36572,0.0849304,0.0479578,1.98523,-1.68181,0.46707,2.96076,-3.73382,0,12000,48.864,30.36,14835.1
140408779,0.634767,2.223,88.5105,-0.0879569,-0.175604,1.00353,4.55287,0.1215,0.0564217,1.52964,-1.0284,0.637522,2.93054,-3.57028,0,12000,48.864,30.36,14835.1
140509265,0.634767,2.223,88.5376,-0.0318344,-0.140544,0.997353,4.65926,0.14408,0.0431888,1.08707,-0.444335,-0.102874,2.88992,-3.42444,0,12000,48.864,30.36,14835.1
140609662,0.634767,2.223,88.5295,0.0115971,-0.114312,0.994365,4.70661,0.166207,0.0288759,0.814523,0.0331024,0.0656173,2.82857,-3.26091,0,12000,48.998,29.09,14253.5
140710098,0.634767,2.223,88.5509,0.0487254,-0.0891031,0.992691,4.71757,0.196253,0.0210711,0.59624,0.359146,0.0426161,2.76254,-3.10987,0,12000,48.998,29.09,14253.5
140810491,0.634767,2.223,88.5707,0.0791482,-0.0686254,0.991204,4.68066,0.20989,0.00308942,0.280587,0.586273,0.207132,2.68688,-2.96128,0,12000,48.998,29.09,14253.5
140912601,0.634767,2.223,88.6011,0.0998075,-0.0515758,0.991188,4.60228,0.229893,-0.00316045,0.142646,0.97445,-0.20376,2.60816,-2.82432,0,12000,48.998,29.09,14253.5
141014017,0.634767,2.223,88.6123,0.106869,-0.0426428,0.991372,4.48631,0.248228,-0.0295381,-0.0706189,1.28777,0.108925,2.53832,-2.69378,0,12000,48.998,29.09,14253.5
141114369,0.634767,2.223,88.6245,0.115769,-0.0338132,0.992037,4.37446,0.260725,-0.0498079,-0.134697,1.23798,-0.0639613,2.46719,-2.5705,0,12000,48.998,29.09,14253.5
141214712,0.634767,2.223,88.6325,0.12322,-0.0272388,0.991328,4.25336,0.265257,-0.0753821,-0.250209,1.26035,-0.121273,2.38824,-2.4382,0,12000,48.998,29.09,14253.5
141315096,0.634767,2.223,88.6452,0.126311,-0.0236134,0.991846,4.11954,0.293831,-0.0848586,-0.174249,1.43994,-0.0649595,2.31898,-2.32966,0,12000,48.998,29.09,14253.5
141415471,0.634768,2.223,88.657,0.128399,-0.0201187,0.992095,3.97407,0.317741,-0.0934817,-0.276682,1.46686,0.246122,2.24513,-2.22211,0,12000,48.998,29.09,14253.5
141515823,0.634768,2.223,88.667,0.124593,-0.0181362,0.992403,3.84283,0.344382,-0.0906742,-0.244349,1.25982,0.0853809,2.17906,-2.12942,0,12000,48.998,29.09,14253.5
141616199,0.634768,2.223,88.6688,0.123332,-0.0161172,0.992704,3.71443,0.361103,-0.106688,-0.292103,1.23913,0.0443697,2.10649,-2.03258,0,12000,48.998,29.09,14253.5
141716577,0.634768,2.223,88.6529,0.120321,-0.0143594,0.992501,3.57968,0.382532,-0.119232,-0.361944,1.27652,0.303058,2.04315,-1.95273,0,12000,48.905,30.244,14790.8
141816943,0.634768,2.223,88.6567,0.117041,-0.00894051,0.991893,3.44943,0.406057,-0.111834,-0.346668,1.27566,0.0395516,1.96898,-1.86115,0,12000,48.905,30.244,14790.8
141917420,0.634768,2.223,88.6423,0.107557,-0.00715203,0.99248,3.33354,0.414021,-0.106742,-0.440333,0.941722,0.368443,1.89843,-1.78727,0,12000,48.905,30.244,14790.8
142017847,0.634768,2.223,88.6247,0.100631,-0.00446559,0.991504,3.21607,0.420719,-0.105611,-0.466653,0.974691,0.135273,1.82884,-1.707,0,12000,48.905,30.244,14790.8
142118222,0.634768,2.223,88.6347,0.0938606,-0.00551614,0.991657,3.10595,0.418667,-0.100807,-0.555308,0.915785,0.210854,1.76233,-1.63549,0,12000,48.905,30.244,14790.8
142218610,0.634768,2.223,88.6357,0.091214,-0.00536957,0.991355,3.0074,0.418145,-0.0932189,-0.544639,0.832756,0.140878,1.69296,-1.57177,0,12000,48.905,30.244,14790.8
142318962,0.634768,2.223,88.6287,0.0885465,-0.00584521,0.991513,2.91323,0.421854,-0.100293,-0.50993,0.812252,-0.0338833,1.6248,-1.50504,0,12000,48.905,30.244,14790.8
142419308,0.634768,2.223,88.6162,0.0865311,-0.00352091,0.992142,2.8265,0.423163,-0.0882271,-0.522999,0.733189,0.468215,1.5517,-1.44158,0,12000,48.905,30.244,14790.8
142519595,0.634768,2.223,88.6193,0.0862795,-0.00249426,0.992057,2.74639,0.423426,-0.0840903,-0.548011,0.710668,0.125254,1.47468,-1.37271,0,12000,48.905,30.244,14790.8
142619969,0.634768,2.223,88.6117,0.0854419,0.00246493,0.992391,2.66941,0.43353,-0.0741587,-0.457649,0.700122,0.241097,1.40333,-1.30681,0,12000,48.905,30.244,14790.8
142720413,0.634768,2.223,88.5864,0.0880845,0.0091154,0.992388,2.59293,0.444149,-0.0778624,-0.482778,0.72717,0.171655,1.3298,-1.24238,0,12000,48.96,30.664,15013.1
142822463,0.634768,2.223,88.5769,0.0943233,0.0193935,0.99357,2.50067,0.453228,-0.0559508,-0.511425,0.664937,0.281087,1.25997,-1.18193,0,12000,48.96,30.664,15013.1
142927274,0.634768,2.223,88.581,0.0969375,0.0326377,0.993758,2.41071,0.456905,-0.042648,-0.634264,0.787319,0.551466,1.18658,-1.1211,0,12000,48.96,30.664,15013.1
143027862,0.634768,2.223,88.5852,0.0980759,0.0416841,0.993663,2.31468,0.443937,-0.0533714,-0.812725,0.753799,-0.0656259,1.11856,-1.06259,0,12000,48.96,30.664,15013.1
143128299,0.634768,2.223,88.5757,0.0975935,0.046998,0.994041,2.21313,0.430091,-0.047249,-0.809087,0.690566,0.446506,1.05654,-1.01029,0,12000,48.96,30.664,15013.1
143228669,0.634768,2.223,88.5586,0.0959495,0.0481437,0.994456,2.11225,0.412689,-0.0362292,-0.91152,0.743631,-0.0233694,0.987853,-0.959801,0,12000,48.96,30.664,15013.1
143328988,0.634768,2.223,88.5698,0.0941429,0.0492894,0.994639,2.00998,0.39949,-0.0387863,-0.8653,0.805367,0.0692931,0.9207,-0.909598,0,12000,48.96,30.664,15013.1
143429368,0.634768,2.223,88.5645,0.0922182,0.0512189,0.994464,1.9124,0.374161,-0.0357755,-0.97618,0.671056,0.124925,0.863837,-0.864082,0,12000,48.96,30.664,15013.1
143529719,0.634768,2.223,88.5529,0.0897441,0.0501456,0.99418,1.81614,0.356144,-0.03892,-0.894451,0.68498,-0.104781,0.808337,-0.822819,0,12000,48.96,30.664,15013.1
143630087,0.634768,2.223,88.5571,0.0883583,0.0515914,0.994362,1.72316,0.329817,-0.0383476,-0.904763,0.632132,0.16915,0.753063,-0.779349,0,12000,48.96,30.664,15013.1
143730457,0.634769,2.223,88.5528,0.0843042,0.0486214,0.994236,1.63218,0.302123,-0.0309912,-0.90213,0.596312,-0.057283,0.701144,-0.741012,0,11956,49.072,25.522,12524.2
143830821,0.634769,2.223,88.5664,0.084589,0.0497075,0.994673,1.54185,0.278708,-0.0282068,-0.929763,0.577974,0.0415936,0.655268,-0.705405,0,11956,49.072,25.522,12524.2
143931235,0.634769,2.223,88.5638,0.0837723,0.0475779,0.995145,1.45682,0.248388,-0.0380515,-0.907748,0.4068,0.187803,0.609885,-0.672949,0,11956,49.072,25.522,12524.2
144031574,0.634769,2.223,88.5637,0.0809276,0.0423214,0.994777,1.37285,0.223115,-0.0368706,-0.900683,0.512933,0.0624055,0.570431,-0.641264,0,11956,49.072,25.522,12524.2
144131899,0.634769,2.223,88.5403,0.0800422,0.0371239,0.994689,1.29522,0.197416,-0.0477938,-0.842465,0.49059,0.0174231,0.535608,-0.612787,0,11956,49.072,25.522,12524.2
144232343,0.634769,2.223,88.5124,0.0795581,0.0337035,0.993977,1.22332,0.189843,-0.0387485,-0.622707,0.467432,0.583117,0.497112,-0.586967,0,11956,49.072,25.522,12524.2
144332678,0.634769,2.223,88.4884,0.0767485,0.030274,0.993153,1.16424,0.180436,-0.0326845,-0.589264,0.347546,0.1913,0.461273,-0.563845,0,11956,49.072,25.522,12524.2
144433686,0.634769,2.223,88.4879,0.0756484,0.028282,0.992832,1.09073,0.175974,-0.0258289,-0.588161,0.527197,0.0566597,0.428639,-0.540601,0,11956,49.072,25.522,12524.2
144535634,0.634769,2.223,88.4911,0.0706584,0.026876,0.992595,1.01854,0.172169,-0.0201552,-0.58133,0.460613,0.421491,0.399731,-0.519916,0,11956,49.072,25.522,12524.2
144635988,0.634769,2.223,88.4898,0.0650383,0.0268093,0.992645,0.947287,0.182484,-0.0168739,-0.505857,0.526015,0.0770276,0.36626,-0.501834,0,11956,49.072,25.522,12524.2
144736398,0.634769,2.223,88.509,0.0573674,0.0265602,0.992261,0.890081,0.18394,-0.00575164,-0.485966,0.339455,-0.0505133,0.33464,-0.486866,0,11956,49.062,25.855,12685
144838441,0.634769,2.223,88.494,0.0538723,0.0268382,0.992221,0.842487,0.179166,-0.00816615,-0.509807,0.282744,0.0581716,0.306392,-0.472028,0,11956,49.062,25.855,12685
144941919,0.634769,2.223,88.4792,0.0492209,0.0279312,0.992276,0.796445,0.176769,-0.0118239,-0.404006,0.181288,0.147452,0.274929,-0.459407,0,11956,49.062,25.855,12685
145042280,0.634769,2.223,88.4679,0.0490476,0.0310871,0.992535,0.762,0.162333,0.00050508,-0.444045,0.141076,-0.321135,0.247517,-0.445847,0,11956,49.062,25.855,12685
145143703,0.634769,2.223,88.4695,0.0501971,0.0329601,0.992717,0.713273,0.150496,0.0021193,-0.515099,0.231308,0.259817,0.21785,-0.433805,0,11956,49.062,25.855,12685
145248380,0.634769,2.223,88.4498,0.0476868,0.0327996,0.992539,0.675013,0.134344,0.0186392,-0.490343,0.0950849,0.132596,0.193568,-0.421388,0,11956,49.062,25.855,12685
145348793,0.634769,2.223,88.4522,0.0462593,0.0331481,0.992271,0.636542,0.114758,0.00999081,-0.531772,0.0879605,0.0736863,0.172412,-0.410157,0,11956,49.062,25.855,12685
145449200,0.634769,2.223,88.4545,0.0455861,0.033244,0.992194,0.595758,0.0983189,0.0128375,-0.508552,0.1659,0.214126,0.147078,-0.397835,0,11956,49.062,25.855,12685
145552938,0.634769,2.223,88.4624,0.0450795,0.0342555,0.992513,0.559712,0.0776859,0.00353941,-0.527131,0.106983,-0.0379386,0.12856,-0.38692,0,11956,49.062,25.855,12685
145653339,0.634769,2.223,88.4429,0.0441995,0.0324294,0.992383,0.516477,0.0577237,0.0014442,-0.505954,0.174103,0.0510353,0.108718,-0.374153,0,11956,49.062,25.855,12685
145753710,0.634769,2.223,88.4145,0.0422961,0.029534,0.992162,0.479423,0.036281,-0.000128385,-0.458344,0.126424,-0.229181,0.0923896,-0.363421,0,11956,49.075,25.487,12507.7
145854040,0.634769,2.223,88.4198,0.0431506,0.026955,0.992378,0.447053,0.0110277,-0.0026046,-0.514103,0.103214,-0.0185239,0.0778515,-0.35257,0,11956,49.075,25.487,12507.7
145954467,0.634769,2.223,88.4003,0.0424848,0.0220723,0.992078,0.404179,-0.00852802,0.00565749,-0.460145,0.178901,0.412941,4.2,-2.4,0,11956,49.075,25.487,12507.7
146054896,0.634769,2.223,88.4016,0.0426336,0.0168634,0.991846,0.373041,-0.0231323,0.0178057,-0.381524,0.120816,0.181955,4.2,-2.4,0,11956,49.075,25.487,12507.7
146155265,0.634769,2.223,88.4186,0.0602669,0.0106095,0.991603,0.343098,-0.0268418,0.0362649,-0.27136,0.228026,0.128164,4.2,-2.4,0,11956,49.075,25.487,12507.7
146255640,0.634769,2.223,88.4304,0.0688199,0.00927727,0.991622,0.304034,-0.0194935,0.0238607,-0.190223,0.294463,-0.0999678,4.2,-2.4,0,11956,49.075,25.487,12507.7
146356096,0.634769,2.223,88.4286,0.0738205,0.00983963,0.991871,0.256933,-0.0114514,0.0347985,-0.258378,0.336802,0.171428,4.2,-2.4,0,11956,49.075,25.487,12507.7
146456474,0.634769,2.223,88.4361,0.0740554,0.0105142,0.991729,0.201679,0.00645551,0.0413968,-0.215485,0.477015,-0.188595,4.2,-2.4,0,11956,49.075,25.487,12507.7
146556809,0.634769,2.223,88.4401,0.0715777,0.0108109,0.991796,0.15442,0.0131231,0.0344987,-0.258891,0.432212,-0.189692,4.2,-2.4,0,11956,49.075,25.487,12507.7
146657108,0.634769,2.223,88.433,0.0701942,0.0113896,0.991403,0.111358,0.019512,0.0229908,-0.267729,0.374976,-0.0671822,4.2,-2.4,0,11956,49.075,25.487,12507.7
146757496,0.634769,2.223,88.4409,0.0679572,0.00951343,0.991406,0.0795097,0.0211581,0.0189936,-0.200552,0.20498,-0.0929192,4.2,-2.4,0,11956,49.075,25.487,12507.7
146857812,0.634769,2.223,88.4112,0.0653328,0.00910601,0.991306,0.0397337,0.035567,0.0202441,-0.199451,0.339501,0.102343,4.2,-2.4,0,11956,49.075,25.487,12507.7
146958234,0.634769,2.223,88.4109,0.0587588,0.00841294,0.991462,-0.00151546,0.0422424,0.0279659,-0.197031,0.326499,-0.124116,1.8,-3.1,0,11956,49.075,25.487,12507.7
147058644,0.634769,2.223,88.4095,0.0506548,0.00735029,0.991431,-0.03812,0.0497324,0.0330174,-0.208767,0.286817,0.0437176,1.8,-3.1,0,11956,49.075,25.487,12507.7
147159013,0.634769,2.223,88.4154,-0.0604491,-0.0564194,0.993609,-0.0805482,0.0514371,0.0597031,-0.222057,0.297734,0.354701,1.8,-3.1,0,11956,49.075,25.487,12507.7
147259365,0.634769,2.223,88.4331,-0.224388,-0.142385,1.00917,0.0654007,0.0420604,0.0534897,0.889938,-1.68571,-0.653239,1.8,-3.1,0,11956,49.075,25.487,12507.7
147359711,0.634769,2.223,88.466,-0.327468,-0.196308,1.0255,0.381362,0.0247735,-0.0215215,1.45847,-2.65503,1.23572,1.8,-3.1,0,11956,49.134,24.747,12159.2
147460086,0.634769,2.223,88.4814,-0.37906,-0.223816,1.03548,0.824507,-0.0132568,-0.0179983,1.9143,-3.61795,1.77036,1.8,-3.1,0,11956,49.134,24.747,12159.2
147560402,0.634769,2.223,88.4815,-0.390697,-0.231899,1.0388,1.3122,-0.0518649,-0.0364806,2.03017,-3.96196,1.9824,1.8,-3.1,0,11956,49.134,24.747,12159.2
147660731,0.634769,2.223,88.4765,-0.348093,-0.211168,1.02966,1.80163,-0.0963825,-0.0365672,1.98652,-3.86321,2.02597,1.8,-3.1,0,11956,49.134,24.747,12159.2
147761109,0.634769,2.223,88.5036,-0.285897,-0.183478,1.01927,2.22565,-0.134902,0.00666228,1.69909,-3.24633,1.64841,1.8,-3.1,0,11956,49.134,24.747,12159.2
147862876,0.634769,2.223,88.5308,-0.22536,-0.155437,1.01106,2.60976,-0.172137,-0.00111497,1.39246,-2.50296,0.596041,1.8,-3.1,0,11956,49.134,24.747,12159.2
147963298,0.634769,2.223,88.5442,-0.166434,-0.127081,1.00405,2.8493,-0.200424,-0.0119369,1.03351,-1.87925,0.360003,3.9,-4.3,0,11956,49.134,24.747,12159.2
148063676,0.634769,2.223,88.5608,-0.131994,-0.121714,0.999281,3.02309,-0.223021,-0.0171042,0.745521,-1.31374,0.400109,3.9,-4.3,0,11956,49.134,24.747,12159.2
148164078,0.634769,2.223,88.5725,-0.147564,-0.196916,1.00481,3.1975,-0.216957,-0.020667,1.32454,-1.2253,-0.229618,3.9,-4.3,0,11956,49.134,24.747,12159.2
148264451,0.634769,2.223,88.5926,-0.176399,-0.272273,1.01565,3.43971,-0.166503,-0.0667267,1.99373,-1.56721,0.128742,3.9,-4.3,0,11956,49.134,24.747,12159.2
148364872,0.634769,2.223,88.6209,-0.193448,-0.325134,1.02442,3.7483,-0.0730318,-0.100026,2.45284,-1.67899,1.44888,3.9,-4.3,0,11956,49.125,24.498,12034.6
148465208,0.634769,2.223,88.6346,-0.196229,-0.343837,1.02828,4.09629,0.0517993,-0.0860608,2.89403,-1.82359,1.4131,3.9,-4.3,0,11956,49.125,24.498,12034.6
148565576,0.634769,2.223,88.6699,-0.174363,-0.321739,1.02239,4.42981,0.176995,-0.0778552,2.72735,-1.65979,1.32369,3.9,-4.3,0,11956,49.125,24.498,12034.6
148665892,0.634769,2.223,88.6943,-0.147981,-0.29349,1.0163,4.71278,0.27247,-0.0756048,2.35184,-1.53856,1.19849,3.9,-4.3,0,11956,49.125,24.498,12034.6
148766218,0.63477,2.223,88.6997,-0.1193,-0.258852,1.00938,4.94482,0.36685,-0.075252,2.12945,-1.11958,0.431546,3.9,-4.3,0,11956,49.125,24.498,12034.6
148866579,0.63477,2.223,88.7176,-0.0954448,-0.227542,1.00441,5.1364,0.429437,-0.0754278,1.72795,-0.906711,0.518655,3.9,-4.3,0,11956,49.125,24.498,12034.6
148967130,0.63477,2.223,88.7464,-0.0767254,-0.200325,1.00031,5.28694,0.481701,-0.0910606,1.52178,-0.681966,0.0479527,0.9,2.4,0,11956,49.125,24.498,12034.6
149067490,0.63477,2.223,88.7731,-0.0287643,-0.162715,0.99179,5.4098,0.509648,-0.111924,1.07636,-0.553229,0.611463,0.9,2.4,0,11956,49.125,24.498,12034.6
149167811,0.63477,2.223,88.7817,0.174423,-0.0249006,0.982242,5.46551,0.541472,-0.0314024,0.515916,0.213563,0.987489,0.9,2.4,0,11956,49.125,24.498,12034.6
149268192,0.63477,2.223,88.8433,0.345735,0.09526,1.00644,5.20169,0.567014,0.0483104,-1.08829,2.59774,1.06684,0.9,2.4,0,11956,49.125,24.498,12034.6
149368515,0.63477,2.223,88.8827,0.448941,0.144322,1.02676,4.79237,0.575336,-0.0366304,-1.9584,4.01175,0.631353,0.9,2.4,0,11956,49.121,25.455,12503.8
149468778,0.63477,2.223,88.8955,0.477256,0.146585,1.03046,4.33763,0.603369,-0.173337,-1.91419,4.06068,1.5822,0.9,2.4,0,11956,49.121,25.455,12503.8
149569083,0.63477,2.223,88.901,0.482758,0.14797,1.03376,3.82608,0.656495,-0.224541,-1.88793,4.25253,2.38727,0.9,2.4,0,11956,49.121,25.455,12503.8
149669378,0.63477,2.223,88.876,0.477816,0.149718,1.03727,3.3158,0.710417,-0.2632,-1.84707,4.01466,2.73926,0.9,2.4,0,11956,49.121,25.455,12503.8
149769777,0.63477,2.223,88.7923,0.467901,0.148828,1.0413,2.79931,0.758955,-0.289601,-1.93464,4.04084,2.62512,0.9,2.4,0,11956,49.121,25.455,12503.8
149870148,0.63477,2.223,88.6894,0.448134,0.146671,1.04303,2.26145,0.819131,-0.257498,-1.86506,3.97317,3.17371,0.9,2.4,0,11956,49.121,25.455,12503.8
149970561,0.63477,2.223,88.5927,0.423579,0.131246,1.03895,1.74645,0.870153,-0.218519,-1.89245,3.8025,2.75003,-2.4,-0.8,0,11956,49.121,25.455,12503.8
150070846,0.63477,2.223,88.5863,0.384967,0.146156,1.03801,1.26813,0.925241,-0.168824,-1.7305,3.51457,2.61525,-2.4,-0.8,0,11956,49.121,25.455,12503.8
150171237,0.63477,2.223,88.581,0.208951,0.309203,1.04511,0.762209,0.924132,0.0245135,-2.14897,3.0665,3.68148,-2.4,-0.8,0,11956,49.121,25.455,12503.8
150271639,0.63477,2.223,88.6023,-0.0164401,0.421097,1.00428,0.401682,0.618408,0.107572,-4.50869,0.886626,0.797591,-2.4,-0.8,0,11956,49.121,25.455,12503.8
150372050,0.63477,2.223,88.6486,-0.153364,0.446525,0.973886,0.25609,0.213529,-0.0572537,-4.4896,-1.29672,0.564406,-2.4,-0.8,0,11956,49.011,27.387,13422.6
150472414,0.63477,2.223,88.6591,-0.190611,0.443759,0.966308,0.180814,-0.259101,-0.161656,-4.44775,-2.03592,1.48998,-2.4,-0.8,0,11956,49.011,27.387,13422.6
150572798,0.63477,2.223,88.6808,-0.159036,0.4092,0.974962,0.108565,-0.754642,-0.193769,-4.39186,-2.06819,1.99615,-2.4,-0.8,0,11956,49.011,27.387,13422.6
150673178,0.63477,2.223,88.6936,-0.107196,0.345738,0.986459,0.0250307,-1.18722,-0.171455,-3.83714,-1.66015,1.91885,-2.4,-0.8,0,11956,49.011,27.387,13422.6
150773555,0.63477,2.223,88.7098,-0.0615442,0.285819,0.994067,-0.0605845,-1.52342,-0.146001,-3.24757,-1.19554,1.28302,-2.4,-0.8,0,11956,49.011,27.387,13422.6
150873898,0.63477,2.223,88.7016,-0.0307299,0.22554,0.996738,-0.152889,-1.78082,-0.133539,-2.66989,-0.768914,1.05978,-2.4,-0.8,0,11956,49.011,27.387,13422.6
150974299,0.63477,2.223,88.6752,-0.00766541,0.17362,0.997284,-0.228217,-1.96836,-0.128621,-2.11367,-0.484809,0.428697,-2.5,0,0,11956,49.011,27.387,13422.6
151074629,0.63477,2.223,88.6606,0.011688,0.138448,0.995946,-0.2946,-2.09372,-0.120515,-1.5814,-0.264699,0.315472,-2.5,0,0,11956,49.011,27.387,13422.6
151174925,0.63477,2.223,88.6257,0.083594,0.117803,1.00046,-0.367068,-2.17749,-0.076924,-1.26853,0.134652,0.493182,-2.5,0,0,11956,49.011,27.387,13422.6
151275207,0.63477,2.223,88.6166,0.127744,0.10611,1.00147,-0.49694,-2.20207,-0.0974395,-1.1595,0.752006,0.0377818,-2.5,0,0,11956,49.011,27.387,13422.6
151375553,0.63477,2.223,88.5754,0.14798,0.0961014,0.999591,-0.651985,-2.20193,-0.0953844,-1.03332,1.09516,0.698007,-2.5,0,0,11911,49.06,26.599,13049.5
151477174,0.63477,2.223,88.5514,0.141725,0.0880628,0.997194,-0.817061,-2.17069,-0.0773291,-0.863951,1.20691,0.413125,-2.5,0,0,11911,49.06,26.599,13049.5
151583407,0.63477,2.223,88.471,0.120053,0.0799744,0.995028,-0.966215,-2.1483,-0.0704222,-0.856687,0.97671,0.368058,-2.5,0,0,11911,49.06,26.599,13049.5
151683815,0.63477,2.223,88.4564,0.0984762,0.0729326,0.993474,-1.09628,-2.11996,-0.0372149,-0.683876,0.847809,0.614839,-2.5,0,0,11911,49.06,26.599,13049.5
151784210,0.63477,2.223,88.4543,0.0782859,0.0672287,0.992753,-1.19015,-2.11096,-0.013939,-0.660104,0.473518,0.474164,-2.5,0,0,11911,49.06,26.599,13049.5
151884607,0.63477,2.223,88.4339,0.0624027,0.0618165,0.992142,-1.26835,-2.09703,-0.00644954,-0.507714,0.237936,0.120815,-2.5,0,0,11911,49.06,26.599,13049.5
151985026,0.63477,2.223,88.415,0.047968,0.0592154,0.992213,-1.31778,-2.0925,0.000401065,-0.51129,0.0860274,0.232533,1.5,3,0,11911,49.06,26.599,13049.5
152086246,0.63477,2.223,88.3997,0.0448093,0.033984,0.994078,-1.36537,-2.10308,0.0162142,-0.567898,-0.0434559,0.34129,1.5,3,0,11911,49.06,26.599,13049.5
152188515,0.63477,2.223,88.4128,0.131235,-0.138051,0.984646,-1.39661,-2.04827,0.0824942,0.348725,0.364386,0.630431,1.5,3,0,11911,49.06,26.599,13049.5
152288870,0.63477,2.223,88.4184,0.210274,-0.26581,0.960949,-1.3964,-1.78771,0.0223227,2.1386,1.31127,-0.398661,1.5,3,0,11911,49.06,26.599,13049.5
152389153,0.63477,2.223,88.4412,0.259437,-0.32841,0.942169,-1.39187,-1.39892,-0.00500451,2.87058,1.63962,1.53753,1.5,3,0,11866,49.062,27.084,13288
152489499,0.63477,2.223,88.4618,0.287731,-0.349221,0.931802,-1.38574,-0.931595,0.00728686,3.30758,1.94592,1.96496,1.5,3,0,11866,49.062,27.084,13288
152589855,0.63477,2.223,88.4849,0.302262,-0.347844,0.92892,-1.38217,-0.454795,0.0121453,3.39216,2.11589,1.89747,1.5,3,0,11866,49.062,27.084,13288
152690235,0.63477,2.223,88.5091,0.31036,-0.337735,0.929126,-1.38297,0.00880027,0.0138616,3.24394,2.05041,1.92009,1.5,3,0,11866,49.062,27.084,13288
152790591,0.63477,2.223,88.5262,0.317556,-0.322316,0.931374,-1.40564,0.473957,0.0117338,3.15098,2.33639,1.86242,1.5,3,0,11866,49.062,27.084,13288
152890973,0.63477,2.223,88.5706,0.322196,-0.304427,0.934596,-1.44388,0.928286,0.0168631,2.90742,2.43152,1.76705,1.5,3,0,11866,49.062,27.084,13288
152991380,0.63477,2.223,88.5896,0.300322,-0.265424,0.944892,-1.48047,1.34454,0.0056471,2.78642,2.41703,1.01051,-3.8,4.8,0,11866,49.062,27.084,13288
153091732,0.63477,2.223,88.5992,0.265296,-0.192546,0.957348,-1.52011,1.70884,0.000988569,2.26859,1.99902,1.53906,-3.8,4.8,0,11866,49.062,27.084,13288
153192152,0.63477,2.223,88.619,0.216861,0.0496991,0.978332,-1.58045,1.99113,0.0934228,1.21097,1.8085,0.576855,-3.8,4.8,0,11866,49.062,27.084,13288
153292518,0.63477,2.223,88.6192,0.199695,0.239864,1.0043,-1.734,1.97426,0.0340792,-1.70552,1.413,-0.611367,-3.8,4.8,0,11866,49.062,27.084,13288
153392875,0.63477,2.223,88.5826,0.199314,0.330188,1.02133,-1.93892,1.82164,-0.0907632,-2.85582,1.0542,0.610665,-3.8,4.8,0,11866,49.026,27.246,13357.6
153493257,0.63477,2.223,88.5764,0.202634,0.366359,1.03175,-2.22132,1.59602,-0.11538,-3.50279,1.17211,1.40338,-3.8,4.8,0,11866,49.026,27.246,13357.6
153593622,0.63477,2.223,88.5723,0.204693,0.370186,1.03647,-2.50817,1.3433,-0.12225,-3.46788,0.95915,2.10747,-3.8,4.8,0,11866,49.026,27.246,13357.6
153693961,0.63477,2.223,88.5656,0.206981,0.3587,1.03656,-2.81515,1.07832,-0.123514,-3.84373,1.22761,1.5632,-3.8,4.8,0,11866,49.026,27.246,13357.6
153794300,0.63477,2.223,88.5789,0.211662,0.342116,1.03462,-3.10267,0.829727,-0.107061,-3.4185,1.05349,1.88226,-3.8,4.8,0,11866,49.026,27.246,13357.6
153894639,0.63477,2.223,88.587,0.221248,0.326153,1.03295,-3.38093,0.598845,-0.0936752,-3.27033,1.11926,1.62675,-3.8,4.8,0,11866,49.026,27.246,13357.6
153995058,0.63477,2.223,88.6232,0.23657,0.30592,1.03079,-3.66293,0.399463,-0.0976973,-2.94376,1.4386,1.35014,1.4,0.3,0,11866,49.026,27.246,13357.6
154095431,0.63477,2.223,88.6328,0.237501,0.274977,1.0242,-3.94458,0.222081,-0.0863769,-2.77484,1.44419,1.27329,1.4,0.3,0,11866,49.026,27.246,13357.6
154195791,0.63477,2.223,88.6546,0.10337,0.0827922,0.993733,-4.21116,0.0821036,-0.0517007,-2.14194,1.33599,1.37976,1.4,0.3,0,11866,49.026,27.246,13357.6
154296111,0.634769,2.223,88.7081,-0.116409,-0.182021,1.00255,-4.1695,0.0686854,0.0186161,0.453347,-0.671439,0.91353,1.4,0.3,0,11866,49.026,27.246,13357.6
154396496,0.634769,2.223,88.7213,-0.243157,-0.316411,1.03076,-3.82247,0.137119,-0.0472003,2.77765,-2.70373,-0.0925659,1.4,0.3,0,11866,49.026,27.246,13357.6
154496867,0.634769,2.223,88.6778,-0.306603,-0.379717,1.05151,-3.35002,0.246976,-0.126061,3.34495,-3.17444,2.03548,1.4,0.3,0,11866,48.995,26.544,13005.2
154597219,0.634769,2.223,88.6764,-0.332315,-0.399716,1.05589,-2.77242,0.392492,-0.139545,3.8245,-3.63064,2.69847,1.4,0.3,0,11866,48.995,26.544,13005.2
154697580,0.634769,2.223,88.6841,-0.330537,-0.394307,1.05151,-2.1732,0.52775,-0.157333,3.87917,-3.84618,2.72635,1.4,0.3,0,11866,48.995,26.544,13005.2
154797938,0.634769,2.223,88.6807,-0.286525,-0.36427,1.03739,-1.59137,0.671416,-0.15161,3.80717,-3.64542,2.57084,1.4,0.3,0,11866,48.995,26.544,13005.2
154898270,0.634769,2.223,88.6404,-0.227889,-0.311063,1.02105,-1.07359,0.809526,-0.141386,3.4123,-3.07167,1.926,1.4,0.3,0,11866,48.995,26.544,13005.2
154998674,0.634769,2.223,88.621,-0.156372,-0.246562,1.00464,-0.645025,0.913586,-0.124621,2.7163,-2.54449,1.54007,0.6,1.5,0,11866,48.995,26.544,13005.2
155098997,0.634769,2.223,88.6264,-0.0814251,-0.181545,0.994323,-0.327638,1.00466,-0.0822096,2.08196,-1.75333,1.28893,0.6,1.5,0,11866,48.995,26.544,13005.2
155199403,0.634769,2.223,88.6266,0.0679041,-0.0677521,0.982985,-0.121817,1.06891,-0.0340922,1.19944,-0.880701,0.380728,0.6,1.5,0,11866,48.995,26.544,13005.2
155299771,0.634769,2.223,88.5916,0.176171,0.0128301,0.989189,-0.125953,1.10445,-0.0725239,0.111815,0.616409,-0.389282,0.6,1.5,0,11866,48.995,26.544,13005.2
155400107,0.634769,2.223,88.5526,0.22806,0.0490576,0.995603,-0.26129,1.1364,-0.0989096,-0.503748,1.49868,0.615612,0.6,1.5,0,11866,48.995,26.544,13005.2
155500471,0.634769,2.223,88.5111,0.231096,0.0563046,0.997909,-0.448034,1.16127,-0.0802356,-0.78698,1.76931,0.97597,0.6,1.5,0,11866,48.995,27.573,13509.4
155602345,0.634769,2.223,88.4427,0.208026,0.0453761,0.996648,-0.651966,1.19016,-0.0618967,-0.554064,1.59697,0.616367,0.6,1.5,0,11866,48.995,27.573,13509.4
155706935,0.634769,2.223,88.4224,0.172572,0.0271119,0.993842,-0.790525,1.19571,-0.0267682,-0.535188,1.27453,0.52187,0.6,1.5,0,11866,48.995,27.573,13509.4
155807254,0.634769,2.223,88.3979,0.147438,0.0108924,0.991939,-0.90027,1.19457,-0.00334769,-0.347417,1.00472,0.638111,0.6,1.5,0,11866,48.995,27.573,13509.4
155907543,0.634769,2.223,88.3849,0.122246,-0.00426675,0.99067,-0.983657,1.19386,0.00259461,-0.193378,0.774251,0.188758,0.6,1.5,0,11866,48.995,27.573,13509.4
156007910,0.634769,2.223,88.3741,0.105664,-0.0146946,0.989996,-1.04664,1.20246,0.0170859,-0.0113069,0.692113,-0.0577357,2.4,0.8,0,11866,48.995,27.573,13509.4
156108477,0.634769,2.223,88.3507,0.0795071,-0.0545738,0.986781,-1.09145,1.19523,0.0223392,-0.0608613,0.408461,0.558612,2.4,0.8,0,11866,48.995,27.573,13509.4
156208831,0.634769,2.223,88.3707,0.0153532,-0.19137,0.992173,-1.07472,1.24086,0.099594,0.944109,-0.00656181,0.606628,2.4,0.8,0,11866,48.995,27.573,13509.4
156309206,0.634769,2.223,88.3973,-0.0327156,-0.28684,0.998996,-0.912203,1.35628,0.0588804,2.2334,-0.670905,-0.216314,2.4,0.8,0,11866,48.995,27.573,13509.4
156409553,0.634769,2.223,88.3851,-0.04872,-0.320009,1.00091,-0.691381,1.51575,0.0243522,2.69372,-0.902278,0.898244,2.4,0.8,0,11866,48.995,27.573,13509.4
156509840,0.634769,2.223,88.3888,-0.0433323,-0.307658,0.99784,-0.430456,1.69922,0.0388349,2.94656,-1.07822,1.02295,2.4,0.8,0,11866,48.959,28.096,13755.5
156610134,0.634769,2.223,88.4132,-0.0273672,-0.272286,0.995163,-0.19474,1.86128,0.0380585,2.57963,-0.955056,1.02085,2.4,0.8,0,11866,48.959,28.096,13755.5
156710472,0.634769,2.223,88.4185,-0.00592289,-0.226551,0.992101,0.00536585,2.00407,0.0621927,2.28236,-0.816767,0.513974,2.4,0.8,0,11866,48.959,28.096,13755.5
156810883,0.634769,2.223,88.3919,0.0114652,-0.187433,0.991008,0.1527,2.1159,0.0620818,1.7828,-0.408288,0.082986,2.4,0.8,0,11866,48.959,28.096,13755.5
156911207,0.634769,2.223,88.3893,0.0258061,-0.151307,0.99088,0.270022,2.1935,0.0554879,1.32045,-0.385213,0.240826,2.4,0.8,0,11866,48.959,28.096,13755.5
157011594,0.634769,2.223,88.4046,0.0361859,-0.125625,0.990699,0.35482,2.25633,0.0527909,0.995599,-0.121733,-0.0210691,-0.8,4.1,0,11866,48.959,28.096,13755.5
157111946,0.634769,2.223,88.3762,0.0606248,-0.0721873,0.993034,0.425724,2.30526,0.0530809,0.781766,-0.238074,0.739306,-0.8,4.1,0,11866,48.959,28.096,13755.5
157212347,0.634769,2.223,88.3866,0.178815,0.0905538,0.997569,0.425185,2.32477,0.109576,-0.18194,0.513975,0.20115,-0.8,4.1,0,11866,48.959,28.096,13755.5
157312656,0.634769,2.223,88.3784,0.288818,0.20611,1.02128,0.229613,2.25395,0.0372142,-1.77678,1.68507,0.0608951,-0.8,4.1,0,11866,48.959,28.096,13755.5
157413015,0.634769,2.223,88.3739,0.355659,0.271277,1.04208,-0.125661,2.14773,-0.0155157,-2.60624,2.43678,1.64372,-0.8,4.1,0,11866,48.959,28.096,13755.5
157513366,0.634769,2.223,88.3859,0.388211,0.295633,1.05433,-0.574213,2.02823,-0.0255842,-3.12128,3.07275,1.95317,-0.8,4.1,0,11866,48.933,27.971,13687
157613725,0.634769,2.223,88.3982,0.390705,0.290177,1.05425,-1.04889,1.89369,-0.00756302,-3.12518,2.84877,2.73027,-0.8,4.1,0,11866,48.933,27.971,13687
157714062,0.634769,2.223,88.4246,0.382731,0.269928,1.04943,-1.50559,1.77085,-0.00833575,-3.0865,2.88493,1.99976,-0.8,4.1,0,11866,48.933,27.971,13687
157814406,0.634769,2.223,88.4432,0.375227,0.240939,1.04205,-1.93734,1.663,-0.00156791,-2.77788,2.63645,2.19466,-0.8,4.1,0,11866,48.933,27.971,13687
157914920,0.634769,2.223,88.4608,0.349481,0.191691,1.02712,-2.36133,1.59518,0.0110036,-2.49114,2.7868,1.7785,-0.8,4.1,0,11866,48.933,27.971,13687
158015318,0.634769,2.223,88.5174,0.307672,0.142086,1.01298,-2.69755,1.56663,0.0417855,-1.77917,2.3853,0.935004,-3.6,-3.3,0,11866,48.933,27.971,13687
158115668,0.634769,2.223,88.5397,0.258248,0.1034,1.00434,-2.95303,1.55551,0.0071595,-1.27685,1.88592,0.636391,-3.6,-3.3,0,11866,48.933,27.971,13687
158216057,0.634769,2.223,88.5655,0.0586952,0.111499,0.985211,-3.17399,1.56614,0.0733056,-0.95361,1.4189,1.1509,-3.6,-3.3,0,11866,48.933,27.971,13687
158316421,0.634769,2.223,88.5919,-0.239013,0.132276,0.966237,-3.15789,1.41228,0.117956,-1.11099,-1.51708,0.82514,-3.6,-3.3,0,11866,48.933,27.971,13687
158416798,0.634769,2.223,88.593,-0.396868,0.141654,0.962931,-2.91102,1.09775,0.0912965,-1.23327,-4.22023,0.283465,-3.6,-3.3,0,11866,48.933,27.971,13687
158517117,0.634769,2.223,88.5806,-0.461661,0.150374,0.965754,-2.59798,0.768871,-0.103228,-1.23456,-4.74208,0.930869,-3.6,-3.3,0,11866,48.978,26.041,12754.4
158617468,0.634769,2.223,88.5399,-0.468349,0.147979,0.972474,-2.21887,0.357402,-0.1532,-1.35039,-4.98648,2.68449,-3.6,-3.3,0,11866,48.978,26.041,12754.4
158717813,0.634769,2.223,88.5018,-0.440515,0.153883,0.973613,-1.82704,-0.063912,-0.155891,-1.35638,-4.89598,2.99647,-3.6,-3.3,0,11866,48.978,26.041,12754.4
158818152,0.634769,2.223,88.4719,-0.41684,0.172434,0.969134,-1.45685,-0.479665,-0.137348,-1.41319,-4.86552,2.63144,-3.6,-3.3,0,11866,48.978,26.041,12754.4
158918455,0.634769,2.223,88.422,-0.388638,0.187435,0.96506,-1.12894,-0.90125,-0.0998286,-1.6526,-4.44238,2.62765,-3.6,-3.3,0,11866,48.978,26.041,12754.4
159018834,0.634769,2.223,88.3868,-0.364526,0.203577,0.96066,-0.835012,-1.31698,-0.0717277,-1.69107,-4.19461,2.38248,-2.1,2.8,0,11866,48.978,26.041,12754.4
159119167,0.634769,2.223,88.383,-0.332527,0.212684,0.958762,-0.586162,-1.73191,-0.0452657,-1.91487,-3.81124,2.21134,-2.1,2.8,0,11866,48.978,26.041,12754.4
159219521,0.634769,2.223,88.3884,-0.155528,0.166473,0.990078,-0.3676,-2.14257,0.0668206,-1.82113,-3.44443,2.77241,-2.1,2.8,0,11866,48.978,26.041,12754.4
159319886,0.634769,2.223,88.4376,0.192516,0.0704284,1.00798,-0.338937,-2.31232,0.125027,-1.03933,-0.60658,-0.210133,-2.1,2.8,0,11866,48.978,26.041,12754.4
159420285,0.634769,2.223,88.4347,0.403175,0.0213054,0.995806,-0.562547,-2.20389,0.0512951,-0.158102,2.87492,-0.124569,-2.1,2.8,0,11866,48.978,26.041,12754.4
159520643,0.634769,2.223,88.42,0.49802,-0.000352517,0.98568,-0.919567,-1.96608,-0.00300416,0.212444,3.91016,2.03872,-2.1,2.8,0,11866,48.978,26.041,12754.4
159621002,0.634769,2.223,88.437,0.52793,-0.00482814,0.981429,-1.36043,-1.66245,-0.00903526,0.292759,4.69848,2.38142,-2.1,2.8,0,11822,48.991,27.487,13466.2
159721357,0.634769,2.223,88.4796,0.519049,0.00278481,0.982012,-1.821,-1.35092,0.0176166,0.216663,4.64541,2.57243,-2.1,2.8,0,11822,48.991,27.487,13466.2
159821713,0.634769,2.223,88.4723,0.462337,0.0112651,0.983465,-2.2556,-1.0548,0.0190059,0.244179,4.49145,2.10478,-2.1,2.8,0,11822,48.991,27.487,13466.2
159922078,0.634768,2.223,88.4645,0.384215,0.0148327,0.985934,-2.64058,-0.81307,0.035227,0.115101,3.6937,1.84812,-2.1,2.8,0,11822,48.991,27.487,13466.2
160022480,0.634768,2.223,88.4872,0.304316,0.0162067,0.987459,-2.94607,-0.61559,0.0612677,0.129334,2.96299,0.930263,-5,-0.3,0,11822,48.991,27.487,13466.2
160122843,0.634768,2.223,88.4928,0.227734,0.0263597,0.988613,-3.16994,-0.47624,0.0514982,0.0417648,2.07549,0.479815,-5,-0.3,0,11822,48.991,27.487,13466.2
160223136,0.634768,2.223,88.485,0.0383214,0.140089,0.98406,-3.36559,-0.37697,0.0885234,-0.401804,0.878275,0.334026,-5,-0.3,0,11822,48.991,27.487,13466.2
160323533,0.634768,2.223,88.4749,-0.158797,0.231147,0.966172,-3.37407,-0.554108,0.0496713,-1.67749,-1.62989,-0.213623,-5,-0.3,0,11822,48.991,27.487,13466.2
160423878,0.634768,2.223,88.4517,-0.261968,0.283326,0.95399,-3.29982,-0.861007,-0.0115732,-2.20583,-2.64057,1.08888,-5,-0.3,0,11822,48.991,27.487,13466.2
160524297,0.634768,2.223,88.4449,-0.307194,0.309513,0.949015,-3.18655,-1.25463,-0.0164691,-2.55375,-3.14816,1.79885,-5,-0.3,0,11822,48.991,27.487,13466.2
160624692,0.634768,2.223,88.434,-0.3057,0.319766,0.949634,-3.05717,-1.68174,-0.0238928,-2.70254,-3.31617,2.08156,-5,-0.3,0,11822,48.955,29.586,14483.8
160725033,0.634768,2.223,88.4233,-0.286295,0.323062,0.953413,-2.93115,-2.10873,-0.0246161,-2.67079,-3.25648,1.98732,-5,-0.3,0,11822,48.955,29.586,14483.8
160825411,0.634768,2.223,88.4002,-0.250475,0.317012,0.959172,-2.82557,-2.52599,-0.0234328,-2.76978,-2.91541,1.78411,-5,-0.3,0,11822,48.955,29.586,14483.8
160925923,0.634768,2.223,88.4133,-0.190741,0.283745,0.969932,-2.74119,-2.89803,-0.00318394,-2.42702,-2.43744,1.64436,-5,-0.3,0,11822,48.955,29.586,14483.8
161026421,0.634768,2.223,88.4347,-0.139571,0.249412,0.976218,-2.69811,-3.19664,0.0141875,-2.12236,-1.89436,0.944662,1.3,0.8,0,11822,48.955,29.586,14483.8
161126803,0.634768,2.223,88.4415,-0.0943766,0.200078,0.983494,-2.67318,-3.43565,0.00835526,-1.81098,-1.41061,0.581175,1.3,0.8,0,11822,48.955,29.586,14483.8
161228326,0.634768,2.223,88.4577,-0.00572368,-0.0870407,0.988685,-2.64177,-3.58745,0.0811863,-0.637888,-0.911443,1.04045,1.3,0.8,0,11822,48.955,29.586,14483.8
161328697,0.634768,2.223,88.4954,0.0756781,-0.334571,0.976557,-2.49196,-3.39131,0.139914,2.65745,-0.0456307,0.831012,1.3,0.8,0,11822,48.955,29.586,14483.8
161429116,0.634768,2.223,88.5333,0.111497,-0.440672,0.969735,-2.32913,-3.03074,0.0198635,4.26004,0.61946,0.397591,1.3,0.8,0,11822,48.955,29.586,14483.8
161529520,0.634768,2.223,88.5367,0.129352,-0.489865,0.967312,-2.12566,-2.56633,-0.0601506,4.80463,0.766604,2.10641,1.3,0.8,0,11822,48.955,29.586,14483.8
161629866,0.634768,2.223,88.5196,0.12588,-0.507217,0.968524,-1.90569,-2.03548,-0.10021,5.03363,0.814166,2.63576,1.3,0.8,0,11822,48.815,30.308,14794.9
161730217,0.634768,2.223,88.5086,0.114018,-0.50369,0.970935,-1.66283,-1.48571,-0.0993144,5.08935,0.724856,2.97573,1.3,0.8,0,11822,48.815,30.308,14794.9
161830552,0.634768,2.223,88.4684,0.0939295,-0.479598,0.976185,-1.416,-0.957226,-0.0912735,4.94105,0.512704,2.87489,1.3,0.8,0,11822,48.815,30.308,14794.9
161930906,0.634768,2.223,88.3996,0.0816017,-0.457249,0.978949,-1.16867,-0.452417,-0.0456314,4.60333,0.389903,3.10317,1.3,0.8,0,11822,48.815,30.308,14794.9
162031294,0.634768,2.223,88.3659,0.0729794,-0.400146,0.984126,-0.926402,0.0240668,-0.0162681,4.46454,0.385248,2.47708,2.3,4.8,0,11822,48.815,30.308,14794.9
162131605,0.634768,2.223,88.3379,0.0879486,-0.319423,0.981406,-0.727389,0.413078,0.0312249,3.65646,0.288587,1.91005,2.3,4.8,0,11822,48.815,30.308,14794.9
162231969,0.634768,2.223,88.3235,0.202217,-0.248252,0.961077,-0.59646,0.729374,0.0760113,2.94632,0.89445,1.12754,2.3,4.8,0,11822,48.815,30.308,14794.9
162332384,0.634768,2.223,88.2906,0.316094,-0.183664,0.963015,-0.624442,1.04799,0.0645588,2.20696,2.15868,0.793068,2.3,4.8,0,11822,48.815,30.308,14794.9
162432734,0.634768,2.223,88.2553,0.384646,-0.149624,0.969255,-0.768543,1.36693,0.0543671,1.571,2.90471,1.55274,2.3,4.8,0,11822,48.815,30.308,14794.9
162533107,0.634768,2.223,88.2282,0.415404,-0.132679,0.97491,-0.977132,1.70047,0.0558269,1.34856,3.33174,2.08718,2.3,4.8,0,11822,48.815,30.308,14794.9
162633490,0.634768,2.223,88.195,0.426203,-0.126245,0.978682,-1.20678,2.02751,0.0846268,1.22422,3.51585,2.13732,2.3,4.8,0,11822,48.856,28.033,13695.8
162733837,0.634768,2.223,88.2101,0.421332,-0.124356,0.979304,-1.44922,2.34197,0.107578,0.993015,3.54864,1.96695,2.3,4.8,0,11822,48.856,28.033,13695.8
162834826,0.634768,2.223,88.2112,0.407668,-0.129638,0.977909,-1.67021,2.63776,0.119274,1.04159,3.45794,1.84276,2.3,4.8,0,11822,48.856,28.033,13695.8
162938453,0.634768,2.223,88.2257,0.394269,-0.138298,0.975134,-1.8629,2.9209,0.138056,1.09981,3.29286,1.54378,2.3,4.8,0,11822,48.856,28.033,13695.8
163038875,0.634768,2.223,88.262,0.369741,-0.138576,0.975603,-2.03509,3.20061,0.150515,1.17166,3.25619,1.2013,2.7,-2.3,0,11822,48.856,28.033,13695.8
163139248,0.634767,2.223,88.2722,0.313758,-0.131418,0.980621,-2.16864,3.44621,0.13904,1.11612,2.68208,0.943608,2.7,-2.3,0,11822,48.856,28.033,13695.8
163239674,0.634767,2.223,88.2912,0.0849937,-0.109155,1.00208,-2.25916,3.65539,0.166469,1.02048,1.87286,1.24908,2.7,-2.3,0,11822,48.856,28.033,13695.8
163340076,0.634767,2.223,88.3312,-0.232922,-0.0659019,1.00474,-2.09079,3.66378,0.206004,0.67775,-1.38555,0.232836,2.7,-2.3,0,11822,48.856,28.033,13695.8
163440435,0.634767,2.223,88.3585,-0.388166,-0.0470975,0.997006,-1.72211,3.48267,0.116305,0.312768,-3.89077,0.0326593,2.7,-2.3,0,11822,48.856,28.033,13695.8
163540755,0.634767,2.223,88.3755,-0.46303,-0.0400625,0.991657,-1.2498,3.22338,0.0449266,0.197059,-4.67256,1.7829,2.7,-2.3,0,11822,48.856,28.033,13695.8
163641118,0.634767,2.223,88.3548,-0.48612,-0.0359296,0.985168,-0.715148,2.91096,0.00993602,0.124376,-5.02289,2.56254,2.7,-2.3,0,11822,48.884,27.797,13588.3
163741478,0.634767,2.223,88.3996,-0.481867,-0.036226,0.981523,-0.155417,2.57218,-0.00592127,0.149101,-5.37001,2.33152,2.7,-2.3,0,11822,48.884,27.797,13588.3
163841825,0.634767,2.223,88.4493,-0.460574,-0.0432911,0.981871,0.387156,2.23708,-0.025556,0.0357749,-4.89281,2.85002,2.7,-2.3,0,11822,48.884,27.797,13588.3
163942158,0.634767,2.223,88.4523,-0.439729,-0.0568944,0.984908,0.922841,1.91465,-0.0131015,0.119882,-4.79123,2.66495,2.7,-2.3,0,11822,48.884,27.797,13588.3
164042552,0.634767,2.223,88.4612,-0.407021,-0.0781076,0.991502,1.42789,1.61882,-0.00416527,0.24645,-4.68938,1.89236,2.1,-1.4,0,11822,48.884,27.797,13588.3
164142881,0.634768,2.223,88.4449,-0.330495,-0.0859111,0.992445,1.89365,1.374,-0.00662855,0.417536,-3.93544,1.90422,2.1,-1.4,0,11822,48.884,27.797,13588.3
164243131,0.634768,2.223,88.4477,-0.190742,-0.0488809,0.988185,2.33119,1.1464,0.0430894,0.291257,-2.78779,0.962211,2.1,-1.4,0,11822,48.884,27.797,13588.3
164343459,0.634768,2.223,88.4305,-0.0666137,-0.0278835,0.988626,2.50086,1.01579,0.0353487,-0.01019,-1.2926,-0.0837879,2.1,-1.4,0,11822,48.884,27.797,13588.3
164443850,0.634768,2.223,88.4383,0.0126371,-0.0178658,0.99004,2.55771,0.930312,0.0183844,-0.17755,-0.283469,0.144414,2.1,-1.4,0,11822,48.884,27.797,13588.3
164544223,0.634768,2.223,88.4567,0.0532171,-0.0179,0.991484,2.55604,0.884813,0.0341464,-0.122691,0.323823,0.158928,2.1,-1.4,0,11822,48.884,27.797,13588.3
164644594,0.634768,2.223,88.4617,0.0649218,-0.0233231,0.991914,2.53793,0.854136,0.0168963,-0.0261678,0.441373,-0.338496,2.1,-1.4,0,11822,48.764,29.946,14602.9
164744966,0.634768,2.223,88.4595,0.0645432,-0.0272289,0.992415,2.5044,0.834835,0.021502,-0.0256046,0.506152,0.122312,2.1,-1.4,0,11822,48.764,29.946,14602.9
164845326,0.634768,2.223,88.4586,0.0542177,-0.0331644,0.992765,2.46066,0.807672,0.0293093,-0.0657023,0.482103,0.0341997,2.1,-1.4,0,11822,48.764,29.946,14602.9
164945651,0.634768,2.223,88.4769,0.0448837,-0.0424844,0.993089,2.41824,0.779825,0.0310768,-0.0407464,0.414647,-0.0865734,2.1,-1.4,0,11822,48.764,29.946,14602.9
165045968,0.634768,2.223,88.4633,0.0354095,-0.0517406,0.992602,2.38923,0.761949,0.0205484,0.124712,0.235481,-0.264737,-5,1.4,0,11822,48.764,29.946,14602.9
165146280,0.634768,2.223,88.4193,0.0372089,-0.0452961,0.994466,2.37681,0.744176,0.0222988,0.241139,-0.0134411,0.237501,-5,1.4,0,11822,48.764,29.946,14602.9
165246655,0.634768,2.223,88.4154,0.102306,0.146917,1.00103,2.31666,0.707787,0.0883646,-0.600739,0.366687,0.387825,-5,1.4,0,11822,48.764,29.946,14602.9
165347005,0.634768,2.223,88.4481,0.160144,0.295424,1.01605,2.07269,0.522491,0.0487938,-2.6915,1.09555,-0.0676292,-5,1.4,0,11822,48.764,29.946,14602.9
165447364,0.634768,2.223,88.454,0.194472,0.386557,1.03074,1.73141,0.270648,-0.0127799,-3.59296,1.36634,1.34052,-5,1.4,0,11822,48.764,29.946,14602.9
165547715,0.634768,2.223,88.4482,0.207834,0.427817,1.0386,1.31024,-0.0412687,-0.0216755,-4.16321,1.48807,2.12544,-5,1.4,0,11822,48.764,29.946,14602.9
165648088,0.634768,2.223,88.4633,0.210424,0.443624,1.04109,0.868428,-0.366679,-0.0462713,-4.37133,1.64941,2.17611,-5,1.4,0,11822,48.764,29.946,14602.9
165748355,0.634768,2.223,88.4797,0.209387,0.436803,1.03889,0.416561,-0.696339,-0.0537759,-4.31586,1.53278,2.65889,-5,1.4,0,11822,48.812,28.461,13892.4
165848587,0.634768,2.223,88.4982,0.209415,0.423319,1.03646,-0.0365005,-1.01953,-0.0256436,-4.19771,1.47335,2.77622,-5,1.4,0,11822,48.812,28.461,13892.4
165948856,0.634768,2.223,88.4834,0.209382,0.408768,1.03365,-0.472864,-1.30802,-0.0210467,-4.12159,1.56623,2.1979,-5,1.4,0,11822,48.812,28.461,13892.4
166049044,0.634768,2.223,88.4908,0.206253,0.392813,1.03094,-0.883518,-1.5776,-0.021219,-3.75158,1.41562,2.20898,2.8,4.2,0,11822,48.812,28.461,13892.4
166149245,0.634768,2.223,88.4493,0.20945,0.35136,1.02787,-1.29963,-1.82044,-0.0237515,-3.72011,1.61205,1.93043,2.8,4.2,0,11822,48.812,28.461,13892.4
166249577,0.634768,2.223,88.4415,0.254247,0.109378,1.01288,-1.71255,-1.99773,0.105952,-2.93444,1.73428,2.30825,2.8,4.2,0,11822,48.812,28.461,13892.4
166349949,0.634768,2.223,88.4694,0.271048,-0.16117,0.976857,-1.94084,-1.86093,0.0817903,0.485187,2.38266,-0.345261,2.8,4.2,0,11822,48.812,28.461,13892.4
166450447,0.634768,2.223,88.4548,0.274865,-0.321046,0.946893,-2.01696,-1.52607,-0.00643747,2.59375,2.16858,0.462184,2.8,4.2,0,11822,48.812,28.461,13892.4
166552755,0.634768,2.223,88.4088,0.266332,-0.391886,0.933267,-2.03988,-1.05825,-0.0238508,3.38199,1.9874,2.07411,2.8,4.2,0,11822,48.812,28.461,13892.4
166659294,0.634768,2.223,88.4398,0.259069,-0.407595,0.929143,-2.01324,-0.539812,0.00200966,3.74504,1.88212,2.30145,2.8,4.2,0,11822,48.812,28.461,13892.4
166760892,0.634768,2.223,88.4633,0.252965,-0.39611,0.929842,-1.9635,-0.019078,0.0136925,3.8619,1.7438,1.97767,2.8,4.2,0,11734,48.933,28.244,13820.6
166861300,0.634768,2.223,88.4538,0.252296,-0.380528,0.930573,-1.91206,0.486845,0.0300635,3.81227,1.72611,1.78952,2.8,4.2,0,11734,48.933,28.244,13820.6
166961647,0.634768,2.223,88.4946,0.25393,-0.371935,0.933007,-1.8596,0.971154,0.0259159,3.58581,1.55852,1.74893,2.8,4.2,0,11734,48.933,28.244,13820.6
167062055,0.634768,2.223,88.5105,0.259505,-0.362155,0.933722,-1.79845,1.45217,0.031672,3.41618,1.52504,1.91335,-3.7,-0.8,0,11734,48.933,28.244,13820.6
167162490,0.634768,2.223,88.5219,0.257257,-0.337295,0.936824,-1.74717,1.92113,0.0222233,3.31697,1.58185,1.583,-3.7,-0.8,0,11734,48.933,28.244,13820.6
167262836,0.634768,2.223,88.5199,0.120309,-0.160489,0.974231,-1.7141,2.39035,0.0573092,3.05287,1.74272,1.37937,-3.7,-0.8,0,11734,48.933,28.244,13820.6
167363198,0.634768,2.223,88.5295,-0.0847558,0.108083,0.981127,-1.65355,2.50767,0.0882698,-0.380942,-0.75859,-0.365457,-3.7,-0.8,0,11734,48.933,28.244,13820.6
167463581,0.634768,2.223,88.5054,-0.214032,0.261367,0.960693,-1.55667,2.25871,0.0105633,-2.28247,-2.42072,0.226209,-3.7,-0.8,0,11734,48.933,28.244,13820.6
167563951,0.634768,2.223,88.4899,-0.275941,0.339334,0.945608,-1.44835,1.87009,-0.0606314,-3.17256,-2.91226,1.52395,-3.7,-0.8,0,11734,48.933,28.244,13820.6
167664374,0.634767,2.223,88.4545,-0.297284,0.370613,0.941336,-1.32663,1.38044,-0.0878578,-3.56424,-3.25129,2.23899,-3.7,-0.8,0,11734,48.933,28.244,13820.6
167764726,0.634767,2.223,88.439,-0.286691,0.377997,0.944157,-1.21718,0.848572,-0.107127,-3.74941,-3.22068,2.59462,-3.7,-0.8,0,11734,48.865,25.518,12469.4
167865066,0.634767,2.223,88.4313,-0.262255,0.381615,0.946711,-1.11885,0.310238,-0.0824763,-3.62766,-2.98824,3.12023,-3.7,-0.8,0,11734,48.865,25.518,12469.4
167965405,0.634767,2.223,88.4493,-0.238728,0.382272,0.950182,-1.03861,-0.22007,-0.0513167,-3.6666,-2.92028,2.52797,-3.7,-0.8,0,11734,48.865,25.518,12469.4
168065830,0.634767,2.223,88.4621,-0.213396,0.381818,0.954276,-0.990673,-0.732538,-0.0322774,-3.57485,-2.60577,2.39068,2.2,4.2,0,11734,48.865,25.518,12469.4
168166159,0.634767,2.223,88.4871,-0.158347,0.344273,0.971509,-0.983336,-1.21697,-0.0342787,-3.71912,-2.21693,1.83575,2.2,4.2,0,11734,48.865,25.518,12469.4
168266495,0.634767,2.223,88.4748,0.0164517,0.107749,1.00535,-0.992801,-1.61026,0.0371432,-2.72375,-1.47767,1.30735,2.2,4.2,0,11734,48.865,25.518,12469.4
168366769,0.634767,2.223,88.4704,0.20563,-0.150752,0.980139,-1.01351,-1.60633,0.0804158,0.529642,0.763437,-0.423698,2.2,4.2,0,11734,48.865,25.518,12469.4
168467067,0.634767,2.223,88.4648,0.309918,-0.273318,0.947367,-1.06503,-1.32517,-0.00433837,2.38656,2.25312,0.510505,2.2,4.2,0,11734,48.865,25.518,12469.4
168567449,0.634767,2.223,88.4593,0.361061,-0.327347,0.928565,-1.12989,-0.904814,-0.0416531,3.16852,2.67146,2.04597,2.2,4.2,0,11734,48.865,25.518,12469.4
168667845,0.634767,2.223,88.4747,0.380359,-0.342437,0.921593,-1.21576,-0.400891,-0.0356115,3.37877,2.91207,2.62681,2.2,4.2,0,11734,48.865,25.518,12469.4
168768196,0.634767,2.223,88.519,0.375651,-0.333903,0.923211,-1.31058,0.10647,-0.0114039,3.34898,2.91601,2.59604,2.2,4.2,0,11734,48.865,26.736,13064.5
168868662,0.634767,2.223,88.527,0.366038,-0.321348,0.926782,-1.40592,0.59441,-0.00262933,3.3373,2.90276,2.14069,2.2,4.2,0,11734,48.865,26.736,13064.5
168969076,0.634767,2.223,88.5318,0.354471,-0.310557,0.931156,-1.50652,1.0684,-0.00159425,3.21276,2.80226,1.96636,2.2,4.2,0,11734,48.865,26.736,13064.5
169069491,0.634767,2.223,88.5373,0.347344,-0.298859,0.935482,-1.59919,1.52197,0.00183504,2.99389,2.71983,1.80368,-1.1,-1.5,0,11734,48.865,26.736,13064.5
169169829,0.634767,2.223,88.5291,0.307859,-0.275025,0.945532,-1.69147,1.96412,0.00632779,2.76538,2.46245,1.89778,-1.1,-1.5,0,11734,48.865,26.736,13064.5
169270184,0.634767,2.223,88.5274,0.0951852,-0.155237,0.986278,-1.75136,2.37706,0.0587502,2.60963,2.07473,1.15492,-1.1,-1.5,0,11734,48.865,26.736,13064.5
169370529,0.634767,2.223,88.5526,-0.197409,0.0491614,0.984603,-1.65994,2.44106,0.0479092,0.494218,-1.11152,-0.186412,-1.1,-1.5,0,11734,48.865,26.736,13064.5
169470870,0.634767,2.223,88.5256,-0.355299,0.150563,0.962961,-1.44925,2.19876,-0.0200301,-1.18952,-3.44691,0.576703,-1.1,-1.5,0,11734,48.865,26.736,13064.5
169571221,0.634767,2.223,88.5185,-0.427552,0.200994,0.948289,-1.1752,1.83339,-0.084033,-1.74124,-4.21078,1.76726,-1.1,-1.5,0,11734,48.865,26.736,13064.5
169671585,0.634767,2.223,88.4946,-0.445624,0.221189,0.943729,-0.864691,1.36845,-0.12467,-2.16696,-4.63274,2.52587,-1.1,-1.5,0,11734,48.865,26.736,13064.5
169771884,0.634767,2.223,88.4934,-0.437378,0.231487,0.942727,-0.534466,0.862774,-0.120101,-2.19315,-4.63039,3.22629,-1.1,-1.5,0,11734,48.865,26.736,13064.5
169872283,0.634767,2.223,88.4658,-0.419985,0.238115,0.940923,-0.208272,0.348136,-0.0976262,-2.28788,-4.58926,3.17894,-1.1,-1.5,0,11734,48.865,26.736,13064.5
169972612,0.634767,2.223,88.4415,-0.365577,0.221996,0.95136,0.0833391,-0.160036,-0.0894081,-2.31962,-4.32704,2.79619,-1.1,-1.5,0,11734,48.865,26.736,13064.5
170072940,0.634767,2.223,88.4207,-0.283898,0.190684,0.963852,0.32431,-0.596661,-0.0326024,-2.01662,-3.56477,2.25599,-3.9,4.5,0,11734,48.865,26.736,13064.5
170173297,0.634767,2.223,88.4369,-0.188396,0.159352,0.973801,0.490907,-0.943977,-0.0161615,-1.72511,-2.72414,1.06341,-3.9,4.5,0,11734,48.865,26.736,13064.5
170273658,0.634767,2.223,88.442,0.0346761,0.171341,0.996339,0.605367,-1.23099,0.105913,-1.42658,-1.90196,1.4467,-3.9,4.5,0,11734,48.865,26.736,13064.5
170374014,0.634767,2.223,88.4636,0.264338,0.184058,1.01744,0.459569,-1.36082,0.0598894,-1.7526,1.23916,-0.613813,-3.9,4.5,0,11734,48.846,28.47,13906.5
170474401,0.634767,2.223,88.468,0.389212,0.192048,1.02632,0.132443,-1.3778,-0.0154174,-1.64703,2.86322,1.1341,-3.9,4.5,0,11734,48.846,28.47,13906.5
170574754,0.634767,2.223,88.4493,0.445038,0.195075,1.02991,-0.324932,-1.35123,-0.0229936,-1.78355,3.64432,2.19701,-3.9,4.5,0,11734,48.846,28.47,13906.5
170675099,0.634767,2.223,88.4666,0.460463,0.196571,1.02955,-0.826869,-1.29984,-0.0185146,-1.83076,4.17808,1.94747,-3.9,4.5,0,11734,48.846,28.47,13906.5
170775445,0.634767,2.223,88.4895,0.451677,0.195869,1.02812,-1.34691,-1.22872,-0.0122035,-1.69525,4.19211,2.32676,-3.9,4.5,0,11734,48.846,28.47,13906.5
170875792,0.634767,2.223,88.4752,0.441042,0.194701,1.02718,-1.8571,-1.16317,-0.00758135,-1.75764,3.93218,2.15208,-3.9,4.5,0,11734,48.846,28.47,13906.5
170976151,0.634767,2.223,88.5023,0.429764,0.193615,1.02714,-2.35201,-1.09324,0.00124347,-1.60695,3.78137,2.00438,-3.9,4.5,0,11734,48.846,28.47,13906.5
171076555,0.634767,2.223,88.5023,0.414822,0.193843,1.02787,-2.83518,-1.02652,0.00441672,-1.60881,3.53737,2.02845,5,3.5,0,11734,48.846,28.47,13906.5
171176905,0.634767,2.223,88.5118,0.390507,0.182017,1.02142,-3.2923,-0.956222,0.00606791,-1.56424,3.47449,1.53958,5,3.5,0,11734,48.846,28.47,13906.5
171277277,0.634767,2.223,88.5215,0.300549,-0.00152265,0.989286,-3.75941,-0.870572,0.106834,-1.3581,3.07654,2.88716,5,3.5,0,11734,48.846,28.47,13906.5
171378606,0.634767,2.223,88.5515,0.169451,-0.258608,0.978258,-3.94486,-0.635773,0.176851,1.40671,1.95943,0.087712,5,3.5,0,11734,48.806,29.637,14464.6
171480895,0.634767,2.223,88.5774,0.0728574,-0.397142,0.981885,-3.85614,-0.327346,0.0432309,3.51837,0.450732,-0.33636,5,3.5,0,11734,48.806,29.637,14464.6
171581252,0.634767,2.223,88.5648,0.0252525,-0.460224,0.984672,-3.63688,0.053166,-0.0712467,4.20044,-0.244221,1.44013,5,3.5,0,11734,48.806,29.637,14464.6
171681604,0.634767,2.223,88.5775,0.00515411,-0.479429,0.983389,-3.32709,0.501584,-0.0714353,4.80088,-0.550788,1.92315,5,3.5,0,11734,48.806,29.637,14464.6
171781947,0.634767,2.223,88.5933,0.00103084,-0.475914,0.980836,-3.00725,0.942016,-0.086771,4.6758,-0.583673,2.1007,5,3.5,0,11734,48.806,29.637,14464.6
171882297,0.634766,2.223,88.6332,0.00761013,-0.465718,0.978547,-2.67207,1.37015,-0.0935096,4.6476,-0.658903,2.10679,5,3.5,0,11734,48.806,29.637,14464.6
171982644,0.634766,2.223,88.6485,0.0186809,-0.456586,0.976376,-2.34079,1.80336,-0.0936781,4.5348,-0.528511,2.07864,5,3.5,0,11734,48.806,29.637,14464.6
172083024,0.634766,2.223,88.6688,0.0328708,-0.443224,0.97485,-2.01835,2.21326,-0.0885416,4.27931,-0.465899,1.95716,1.17,-5.43434,0,11734,48.806,29.637,14464.6
172183372,0.634766,2.223,88.6712,0.0476148,-0.415274,0.972614,-1.70855,2.61565,-0.0931876,4.11124,-0.352808,1.93885,1.12483,-5.57944,0,11734,48.806,29.637,14464.6
172283719,0.634766,2.223,88.6806,-0.0422367,-0.232034,0.988446,-1.41887,3.01726,-0.0324775,3.82525,-0.0774401,1.88342,0.977307,-6.01234,0,11734,48.806,29.637,14464.6
172384094,0.634766,2.223,88.6878,-0.158741,-0.0146949,0.987764,-1.1778,3.11351,0.00525505,1.2242,-1.4798,-0.0737326,0.892221,-6.24607,0,11734,48.806,29.871,14578.8
172484463,0.634766,2.223,88.6371,-0.22596,0.122525,0.973615,-0.95617,2.9661,-0.0746037,-0.635837,-2.44914,-0.229414,0.839097,-6.22389,0,11734,48.806,29.871,14578.8
172584745,0.634766,2.223,88.597,-0.256128,0.202616,0.961566,-0.750041,2.6659,-0.116116,-1.73802,-2.77829,1.20011,0.803599,-6.17316,0,11734,48.806,29.871,14578.8
172685124,0.634766,2.223,88.6012,-0.256265,0.2357,0.957251,-0.557089,2.2825,-0.146264,-2.32947,-3.00994,1.30984,0.733318,-6.12533,0,11734,48.806,29.871,14578.8
172785532,0.634766,2.223,88.5768,-0.234802,0.23714,0.958626,-0.364316,1.77942,-0.135469,-2.46089,-2.80555,1.93575,0.656325,-6.13335,0,11734,48.806,29.871,14578.8
172885938,0.634766,2.223,88.5813,-0.207406,0.221165,0.964543,-0.204309,1.37484,-0.107168,-2.38638,-2.70297,1.3169,0.580504,-6.1318,0,11734,48.806,29.871,14578.8
172986345,0.634766,2.223,88.582,-0.170524,0.196744,0.971103,-0.0802382,1.01328,-0.0982913,-2.11922,-2.28924,1.08518,0.516795,-6.15119,0,11734,48.806,29.871,14578.8
173086824,0.634766,2.223,88.5881,-0.127544,0.164892,0.978219,0.0201938,0.696495,-0.0740952,-1.78889,-1.75938,1.06006,0.48404,-6.14327,0,11734,48.806,29.871,14578.8
173187243,0.634766,2.223,88.5623,-0.0852895,0.125481,0.98468,0.0948187,0.437517,-0.0677019,-1.43033,-1.38026,0.312284,0.454556,-6.15081,0,11734,48.806,29.871,14578.8
173287520,0.634767,2.223,88.5582,-0.165143,0.073945,0.98021,0.156772,0.222458,-0.0393923,-0.946149,-1.25439,0.565006,0.530687,-6.13063,0,11734,48.806,29.871,14578.8
173387873,0.634767,2.223,88.5269,-0.282557,0.0307375,0.982221,0.352453,-0.00942957,-0.0571957,-0.418145,-2.53958,0.370919,0.548397,-6.11153,0,11734,48.781,30.165,14714.8
173488235,0.634767,2.223,88.4918,-0.360114,0.00294966,0.987879,0.653798,-0.278666,-0.0748734,-0.130248,-3.32605,1.61113,0.57566,-6.06609,0,11734,48.781,30.165,14714.8
173588578,0.634767,2.223,88.4827,-0.407489,-0.0161994,0.99306,1.02172,-0.566383,-0.061402,0.0657795,-4.08112,1.62008,0.57964,-6.01861,0,11734,48.781,30.165,14714.8
173688967,0.634767,2.223,88.4626,-0.418037,-0.0274501,0.996351,1.41888,-0.85432,-0.0546985,0.224935,-4.14374,2.13031,0.620204,-5.94872,0,11734,48.781,30.165,14714.8
173789325,0.634767,2.223,88.4493,-0.415245,-0.0381524,0.999257,1.82532,-1.13381,-0.027551,0.347393,-4.16869,2.11816,0.637554,-5.87343,0,11734,48.781,30.165,14714.8
173889726,0.634767,2.223,88.4695,-0.404864,-0.0460397,1.00176,2.21129,-1.38024,-0.00670959,0.472299,-4.0793,1.67272,0.67433,-5.77778,0,11734,48.781,30.165,14714.8
173990066,0.634767,2.223,88.4734,-0.395283,-0.0575435,1.00487,2.57313,-1.62023,-0.00866406,0.415973,-3.92379,1.52262,0.689754,-5.66557,0,11734,48.781,30.165,14714.8
174090467,0.634767,2.223,88.4522,-0.385555,-0.0728462,1.0086,2.93116,-1.84105,-0.00269686,0.536361,-3.70606,1.7578,0.714559,-5.52844,0,11734,48.781,30.165,14714.8
174190775,0.634767,2.223,88.4531,-0.372014,-0.0919688,1.01226,3.27346,-2.03862,0.00510665,0.626049,-3.63445,1.43744,0.722633,-5.38817,0,11734,48.781,30.165,14714.8
174291143,0.634767,2.223,88.457,-0.340284,-0.109742,1.01431,3.60996,-2.20377,0.0102979,0.94332,-3.3752,1.52182,0.752282,-5.21571,0,11734,48.781,30.165,14714.8
174391502,0.634767,2.223,88.4691,-0.273129,-0.116632,1.01262,3.92332,-2.33576,0.0398965,1.03036,-3.00945,1.25265,0.787103,-5.05139,0,11734,48.842,29.279,14300.4
174491847,0.634767,2.223,88.4927,-0.200441,-0.120438,1.00909,4.14752,-2.42003,0.0383031,1.05071,-2.19973,0.665786,0.839693,-4.85894,0,11734,48.842,29.279,14300.4
174592260,0.634767,2.223,88.5215,-0.129984,-0.124914,1.00483,4.30395,-2.46081,0.050639,1.09142,-1.46951,0.458051,0.881113,-4.66939,0,11734,48.842,29.279,14300.4
174692649,0.634767,2.223,88.5534,-0.0639415,-0.126048,1.00147,4.40465,-2.46077,0.0524492,1.1404,-0.816339,0.0802441,0.921486,-4.48045,0,11734,48.842,29.279,14300.4
174793011,0.634767,2.223,88.5829,-0.0149244,-0.125966,0.998536,4.43529,-2.42903,0.0553037,0.991831,-0.0196033,0.208504,0.947642,-4.29231,0,11734,48.842,29.279,14300.4
174893365,0.634767,2.223,88.5952,0.0271308,-0.120605,0.996237,4.43793,-2.36734,0.040897,1.13784,0.266344,-0.390305,0.973862,-4.11469,0,11734,48.842,29.279,14300.4
174993720,0.634767,2.223,88.5864,0.0564348,-0.104527,0.994608,4.40277,-2.30761,0.0225557,0.862302,0.640016,0.258161,0.988284,-3.94314,0,11734,48.842,29.279,14300.4
175094085,0.634767,2.223,88.5425,0.0729431,-0.0938444,0.9944,4.33598,-2.24331,0.0138623,0.748643,0.919414,-0.035237,0.998508,-3.78417,0,11734,48.842,29.279,14300.4
175194458,0.634767,2.223,88.4922,0.092209,-0.0868046,0.994198,4.25762,-2.17708,0.00948539,0.676597,1.08875,-0.259465,1.00119,-3.63273,0,11734,48.842,29.279,14300.4
175294823,0.634767,2.223,88.4996,0.102604,-0.0835569,0.994822,4.14855,-2.11124,-0.0174321,0.478708,1.26248,0.0222128,0.998633,-3.47601,0,11734,48.842,29.279,14300.4
175395163,0.634767,2.223,88.4683,0.110006,-0.0875506,0.993779,4.03965,-2.03117,-0.00820359,0.561128,1.27786,0.270295,1.00184,-3.32988,0,11689,48.778,29.088,14188.5
175495518,0.634767,2.223,88.5066,0.117186,-0.0899487,0.994203,3.9289,-1.94371,-0.0245195,0.548568,1.4248,-0.232192,0.996753,-3.20258,0,11689,48.778,29.088,14188.5
175595869,0.634768,2.223,88.4877,0.1212,-0.0948745,0.992186,3.81894,-1.84656,-0.0454113,0.623736,1.42494,0.107146,0.993544,-3.05904,0,11689,48.778,29.088,14188.5
175696279,0.634768,2.223,88.4508,0.115953,-0.0910025,0.992547,3.71447,-1.73923,-0.0529707,0.582144,1.2809,0.768213,0.979668,-2.92684,0,11689,48.778,29.088,14188.5
175796661,0.634768,2.223,88.4485,0.120751,-0.084256,0.993775,3.62504,-1.63522,-0.00540914,0.650177,1.32816,0.0713721,0.960914,-2.80654,0,11689,48.778,29.088,14188.5
175897021,0.634768,2.223,88.4311,0.122233,-0.0755134,0.993458,3.52528,-1.53978,-0.0280815,0.449789,1.38817,0.0495839,0.939164,-2.68281,0,11689,48.778,29.088,14188.5
175997399,0.634768,2.223,88.4075,0.114374,-0.0597284,0.994358,3.41196,-1.44059,-0.0319213,0.338053,1.45345,0.295552,0.913805,-2.56587,0,11689,48.778,29.088,14188.5
176097781,0.634768,2.223,88.3783,0.109387,-0.0509978,0.994101,3.30942,-1.36222,-0.011233,0.168264,1.24707,0.38148,0.891282,-2.45619,0,11689,48.778,29.088,14188.5
176198125,0.634768,2.223,88.3913,0.108079,-0.0445736,0.994426,3.21792,-1.29697,0.00429576,0.06519,1.12676,0.318576,0.854584,-2.35115,0,11689,48.778,29.088,14188.5
176298512,0.634768,2.223,88.3927,0.104494,-0.0408382,0.993727,3.12418,-1.227,-0.00133924,0.0787952,1.23334,-0.0691544,0.8169,-2.23734,0,11689,48.778,29.088,14188.5
176398930,0.634768,2.223,88.4124,0.102981,-0.0310165,0.994279,3.03851,-1.15939,0.00827057,0.0229831,1.08848,0.359862,0.782589,-2.12877,0,11689,48.778,29.088,14188.5
176499281,0.634768,2.223,88.4335,0.0984937,-0.0256193,0.994562,2.94458,-1.10116,0.00369638,-0.14161,1.21212,-0.174066,0.744237,-2.02766,0,11689,48.661,29.245,14230.9
176599626,0.634768,2.223,88.461,0.0994992,-0.0229996,0.9938,2.86082,-1.05302,0.0103469,-0.139916,1.06431,0.0203165,0.710562,-1.9241,0,11689,48.661,29.245,14230.9
176699969,0.634768,2.223,88.475,0.105614,-0.0216674,0.993279,2.79302,-1.00344,0.0268468,-0.114815,1.01727,-0.342725,0.677079,-1.82408,0,11689,48.661,29.245,14230.9
176800346,0.634768,2.223,88.4742,0.111896,-0.0212121,0.993856,2.71928,-0.946316,0.0157587,-0.0812996,1.01635,0.285423,0.633756,-1.72868,0,11689,48.661,29.245,14230.9
176900700,0.634768,2.223,88.4639,0.116677,-0.0168498,0.993476,2.63878,-0.889877,0.0129061,-0.182079,1.07544,-7.29114e-05,0.590458,-1.62869,0,11689,48.661,29.245,14230.9
177001123,0.634768,2.223,88.4765,0.121257,-0.00780673,0.994314,2.54518,-0.822811,0.000252856,-0.170134,1.28428,-0.184976,0.552343,-1.53727,0,11689,48.661,29.245,14230.9
177101483,0.634768,2.223,88.4937,0.119209,-4.13992e-05,0.994373,2.45415,-0.768962,-5.63916e-05,-0.32819,1.20852,0.149869,0.518214,-1.45379,0,11689,48.661,29.245,14230.9
177201828,0.634768,2.223,88.5187,0.115498,0.00815419,0.993851,2.3517,-0.722927,-0.0126712,-0.437818,1.28239,-0.253073,0.476826,-1.368,0,11689,48.661,29.245,14230.9
177302189,0.634768,2.223,88.5171,0.112305,0.0159047,0.994575,2.26186,-0.68688,-0.0206787,-0.470481,1.13409,-0.281768,0.440814,-1.28878,0,11689,48.661,29.245,14230.9
177402509,0.634768,2.223,88.5307,0.114207,0.0206291,0.994996,2.16925,-0.665403,-0.0101572,-0.609506,1.0681,0.095209,0.39759,-1.2061,0,11689,48.661,29.245,14230.9
177502873,0.634768,2.223,88.5478,0.115267,0.0212677,0.996006,2.07052,-0.641566,-0.0169968,-0.634416,1.05988,-0.21548,0.358711,-1.13453,0,11689,48.969,24.014,11759.4
177604887,0.634768,2.223,88.5396,0.11492,0.0204927,0.995553,1.94781,-0.607189,-0.0268171,-0.646601,1.05789,-0.133054,0.326003,-1.06397,0,11689,48.969,24.014,11759.4
177708385,0.634769,2.223,88.5416,0.115771,0.0186674,0.995272,1.85251,-0.574582,-0.0174907,-0.534946,1.00963,0.132612,0.295376,-0.997323,0,11689,48.969,24.014,11759.4
177808689,0.634769,2.223,88.5385,0.116039,0.0169986,0.995818,1.75578,-0.542233,-0.0298112,-0.519322,1.02641,-0.0258238,0.258075,-0.933153,0,11689,48.969,24.014,11759.4
177909021,0.634769,2.223,88.5501,0.11691,0.0188306,0.995505,1.6648,-0.505897,-0.0225784,-0.447399,1.00083,0.254104,0.22476,-0.874888,0,11689,48.969,24.014,11759.4
178009367,0.634769,2.223,88.5485,0.115479,0.020275,0.995691,1.57033,-0.471785,-0.0242595,-0.494258,1.02815,-0.124206,0.197981,-0.822979,0,11689,48.969,24.014,11759.4
178109772,0.634769,2.223,88.5534,0.111626,0.0210519,0.995167,1.48087,-0.443059,-0.0365654,-0.559562,0.866999,0.186298,0.165899,-0.770636,0,11689,48.969,24.014,11759.4
178210179,0.634769,2.223,88.5604,0.106856,0.0187013,0.995133,1.38991,-0.399869,-0.0274221,-0.39995,0.90238,0.131692,0.140784,-0.727859,0,11689,48.969,24.014,11759.4
178310533,0.634769,2.223,88.5543,0.101189,0.01894,0.99429,1.30785,-0.369564,-0.0442542,-0.453959,0.859116,-0.197609,0.116321,-0.685919,0,11689,48.969,24.014,11759.4
178410886,0.634769,2.223,88.5654,0.0972356,0.0188399,0.994004,1.23277,-0.334679,-0.0473801,-0.411197,0.805083,0.0567265,0.0850522,-0.650272,0,11689,48.969,24.014,11759.4
178511222,0.634769,2.223,88.5869,0.091927,0.0204367,0.993759,1.1591,-0.299472,-0.0302771,-0.393108,0.758081,0.260441,0.0530428,-0.614974,0,11689,48.945,22.819,11168.8
178615019,0.634769,2.223,88.5836,0.0860354,0.0226476,0.994131,1.08933,-0.276592,-0.0426688,-0.46483,0.693738,-0.0413983,0.0286281,-0.583944,0,11689,48.945,22.819,11168.8
178715398,0.634769,2.223,88.5953,0.078879,0.0232415,0.994173,1.01702,-0.250576,-0.0396,-0.408666,0.648832,0.142878,-0.00284952,-0.553209,0,11689,48.945,22.819,11168.8
178815765,0.634769,2.223,88.5603,0.0737636,0.0250386,0.994094,0.964233,-0.232964,-0.0565332,-0.395058,0.504334,-0.175028,-0.0263035,-0.526866,0,11689,48.945,22.819,11168.8
178916169,0.634769,2.223,88.5366,0.0696174,0.0286027,0.993417,0.905329,-0.212995,-0.0547,-0.485777,0.495839,0.185174,-0.0542942,-0.502104,0,11689,48.945,22.819,11168.8
179016547,0.634769,2.223,88.5186,0.0674309,0.0316726,0.9932,0.854858,-0.205997,-0.0441159,-0.49674,0.397472,0.299147,-0.0774069,-0.477401,0,11689,48.945,22.819,11168.8
179116930,0.634769,2.223,88.5038,0.0651066,0.0350362,0.992472,0.789853,-0.204352,-0.0350123,-0.630376,0.505099,0.325861,-0.102003,-0.456298,0,11689,48.945,22.819,11168.8
179217341,0.634769,2.223,88.4796,0.0627138,0.0352021,0.992558,0.729866,-0.200143,-0.0205197,-0.530839,0.446622,0.303472,-3.2,-4.3,0,11689,48.945,22.819,11168.8
179317691,0.634769,2.223,88.4648,0.0567836,0.0260503,0.991439,0.672995,-0.194179,-0.0223497,-0.498907,0.420585,-0.239489,-3.2,-4.3,0,11689,48.945,22.819,11168.8
179418036,0.634769,2.223,88.4575,0.0602255,0.00189835,0.990227,0.629203,-0.182102,-0.00511035,-0.285942,0.332128,0.303912,-3.2,-4.3,0,11689,48.945,22.819,11168.8
179518413,0.634769,2.223,88.4552,0.0731226,-0.00788579,0.990099,0.599252,-0.147724,-0.0144536,-0.124247,0.378108,0.025971,-3.2,-4.3,0,11689,48.926,23.819,11653.7
179618796,0.634769,2.223,88.432,0.0805148,-0.0101041,0.989758,0.557014,-0.0976341,-0.00519168,-0.0788234,0.514391,0.537327,-3.2,-4.3,0,11689,48.926,23.819,11653.7
179719128,0.634769,2.223,88.4298,0.0861022,-0.00887832,0.98932,0.51521,-0.052438,0.0162966,-0.0339276,0.595024,-0.249706,-3.2,-4.3,0,11689,48.926,23.819,11653.7
179820978,0.634769,2.223,88.3997,0.0875412,-0.00481505,0.989889,0.469454,-0.00396356,0.013739,-0.0562318,0.580934,0.108547,-3.2,-4.3,0,11689,48.926,23.819,11653.7
179927012,0.634769,2.223,88.3809,0.0851364,0.00156389,0.989613,0.391582,0.0420436,0.0190869,-0.241141,0.631805,0.113824,-3.2,-4.3,0,11689,48.926,23.819,11653.7
180029791,0.634769,2.223,88.3755,0.0809473,0.00668175,0.989613,0.338013,0.0631796,0.0113521,-0.289621,0.476327,0.316038,-3.2,-4.3,0,11689,48.926,23.819,11653.7
180130156,0.634769,2.223,88.3641,0.0796067,0.0103768,0.990058,0.282651,0.0909538,0.0402506,-0.256993,0.564874,0.493613,-3.2,-4.3,0,11689,48.926,23.819,11653.7
180230593,0.634769,2.223,88.3544,0.0726416,0.0112042,0.989974,0.219923,0.107791,0.0536442,-0.335218,0.504225,0.13093,2.5,4.9,0,11689,48.926,23.819,11653.7
180330964,0.634769,2.223,88.3751,0.0748363,0.00492491,0.989638,0.173886,0.117895,0.0534087,-0.333116,0.358556,0.0764174,2.5,4.9,0,11689,48.926,23.819,11653.7
180431294,0.634769,2.223,88.3719,0.171274,-0.0658358,0.984275,0.137265,0.137395,0.086129,-0.0609197,0.507671,0.155138,2.5,4.9,0,11689,48.926,23.819,11653.7
180531665,0.634769,2.223,88.3807,0.275624,-0.128682,0.971524,0.0461011,0.294079,0.0378192,0.724844,1.71459,0.104729,2.5,4.9,0,11644,48.902,24.646,12052.4
180632060,0.634769,2.223,88.3978,0.340989,-0.164371,0.959937,-0.108043,0.565347,0.0265935,1.22073,2.63559,0.918364,2.5,4.9,0,11644,48.902,24.646,12052.4
180732428,0.634769,2.223,88.3923,0.381537,-0.184256,0.951618,-0.282229,0.890957,0.0131557,1.56915,3.09638,1.34683,2.5,4.9,0,11644,48.902,24.646,12052.4
180832758,0.634769,2.223,88.4125,0.394398,-0.188634,0.948909,-0.476427,1.25377,0.0198516,1.639,3.19331,1.71886,2.5,4.9,0,11644,48.902,24.646,12052.4
180933125,0.634769,2.223,88.4279,0.394441,-0.183981,0.95019,-0.66551,1.61949,0.0303881,1.72502,3.25596,1.47879,2.5,4.9,0,11644,48.902,24.646,12052.4
181033428,0.634769,2.223,88.4432,0.392928,-0.17695,0.952435,-0.858915,1.97017,0.0344254,1.51996,3.2939,1.46237,2.5,4.9,0,11644,48.902,24.646,12052.4
181133788,0.634769,2.223,88.4304,0.390696,-0.170997,0.954333,-1.04778,2.30167,0.0258585,1.38916,3.09283,1.57146,2.5,4.9,0,11644,48.902,24.646,12052.4
181234181,0.634769,2.223,88.4364,0.385707,-0.163587,0.957256,-1.24173,2.63891,0.0191406,1.3948,3.26556,1.12666,-2.5,-4.6,0,11644,48.902,24.646,12052.4
181334528,0.634769,2.223,88.4524,0.372192,-0.149361,0.961854,-1.41995,2.96823,0.023676,1.30607,2.92667,1.56967,-2.5,-4.6,0,11644,48.902,24.646,12052.4
181434872,0.634769,2.223,88.4701,0.192009,-0.0560128,0.985026,-1.60406,3.27692,0.0471357,1.07622,2.7786,1.21744,-2.5,-4.6,0,11644,48.902,24.646,12052.4
181535252,0.634769,2.223,88.5176,-0.129762,0.0895685,0.982361,-1.63239,3.3159,0.111275,-0.350103,-0.0167471,0.392823,-2.5,-4.6,0,11599,48.889,25.436,12435.4
181635606,0.634769,2.223,88.5333,-0.327061,0.163423,0.963612,-1.44569,3.05496,0.074453,-1.62531,-3.22649,0.0897177,-2.5,-4.6,0,11599,48.889,25.436,12435.4
181735923,0.634769,2.223,88.5534,-0.42334,0.203931,0.950311,-1.17466,2.67849,-0.0161683,-2.08444,-4.23606,1.37213,-2.5,-4.6,0,11599,48.889,25.436,12435.4
181836289,0.634769,2.223,88.5658,-0.457749,0.225982,0.942778,-0.838342,2.21256,-0.0635631,-2.18399,-4.68603,2.53979,-2.5,-4.6,0,11599,48.889,25.436,12435.4
181936654,0.634769,2.223,88.5944,-0.461726,0.242824,0.937923,-0.491997,1.69537,-0.094713,-2.46541,-4.95142,2.79059,-2.5,-4.6,0,11599,48.889,25.436,12435.4
182037014,0.634769,2.223,88.6407,-0.443609,0.252961,0.936392,-0.159935,1.15307,-0.112066,-2.64377,-4.85106,2.92423,-2.5,-4.6,0,11599,48.889,25.436,12435.4
182137322,0.634769,2.223,88.6696,-0.425421,0.255895,0.937597,0.140628,0.619928,-0.121893,-2.66027,-4.50621,2.74884,-2.5,-4.6,0,11599,48.889,25.436,12435.4
182237729,0.634769,2.223,88.6889,-0.404819,0.253404,0.940897,0.427818,0.0792056,-0.127545,-2.63015,-4.3326,2.82392,-0.8,4.2,0,11599,48.889,25.436,12435.4
182338086,0.634769,2.223,88.6907,-0.371611,0.244479,0.946962,0.694911,-0.441813,-0.127061,-2.58735,-4.1522,2.38135,-0.8,4.2,0,11599,48.889,25.436,12435.4
182438489,0.634769,2.223,88.686,-0.196963,0.194357,0.986158,0.931318,-0.957323,-0.0424972,-2.41601,-3.79083,2.71641,-0.8,4.2,0,11599,48.889,25.436,12435.4
182538796,0.634769,2.223,88.663,0.12428,0.0977006,1.01301,0.975903,-1.21395,-0.0443743,-1.54028,-0.939426,0.201627,-0.8,4.2,0,11599,48.889,25.436,12435.4
182639116,0.634769,2.223,88.6399,0.353102,0.0308829,1.00236,0.774177,-1.19207,-0.0940594,-0.521349,2.23388,0.434112,-0.8,4.2,0,11599,48.844,28.105,13727.6
182739485,0.634769,2.223,88.6053,0.463774,-0.00877488,0.986479,0.432659,-1.03094,-0.117493,-0.0944226,3.55747,2.02208,-0.8,4.2,0,11599,48.844,28.105,13727.6
182839840,0.634769,2.223,88.5916,0.501612,-0.0224497,0.978453,-0.00333321,-0.768899,-0.114299,0.120903,4.44637,2.6348,-0.8,4.2,0,11599,48.844,28.105,13727.6
182940235,0.634769,2.223,88.6015,0.502053,-0.0236241,0.97531,-0.444556,-0.476017,-0.0948743,0.360079,4.43432,2.71777,-0.8,4.2,0,11599,48.844,28.105,13727.6
183040577,0.634769,2.223,88.5963,0.489835,-0.0194503,0.975723,-0.887271,-0.201977,-0.0694021,0.192571,4.52151,2.22908,-0.8,4.2,0,11599,48.844,28.105,13727.6
183140927,0.634769,2.223,88.5595,0.474681,-0.0170661,0.977708,-1.32251,0.0722529,-0.063173,0.239323,4.27255,2.35565,-0.8,4.2,0,11599,48.844,28.105,13727.6
183241324,0.634769,2.223,88.5687,0.459033,-0.0123983,0.980124,-1.74414,0.346403,-0.0482717,0.264976,4.12454,2.12037,-3.3,2.2,0,11599,48.844,28.105,13727.6
183341714,0.634769,2.223,88.5911,0.435918,0.00497418,0.984818,-2.14381,0.599309,-0.0284696,0.175072,3.8489,1.85073,-3.3,2.2,0,11599,48.844,28.105,13727.6
183442105,0.634769,2.223,88.613,0.306523,0.160819,1.00164,-2.53392,0.819391,0.016107,-0.256503,3.55955,1.5968,-3.3,2.2,0,11599,48.844,28.105,13727.6
183542463,0.634769,2.223,88.6303,0.133054,0.298426,0.995818,-2.87501,0.776618,0.0408218,-2.27554,1.78345,0.514544,-3.3,2.2,0,11599,48.844,28.105,13727.6
183642813,0.634769,2.223,88.6411,0.0211838,0.3676,0.989146,-3.09597,0.559448,-0.0169546,-3.26348,0.109675,-0.0130044,-3.3,2.2,0,11599,48.77,29.298,14288.6
183743176,0.634768,2.223,88.6314,-0.0353335,0.371503,0.986012,-3.27514,0.233125,-0.0589469,-3.50463,-0.730043,1.41118,-3.3,2.2,0,11599,48.77,29.298,14288.6
183843490,0.634768,2.223,88.6209,-0.0496852,0.337727,0.989357,-3.40699,-0.101766,-0.063879,-3.39705,-1.09795,1.06828,-3.3,2.2,0,11599,48.77,29.298,14288.6
183943886,0.634768,2.223,88.5921,-0.0421783,0.286438,0.994112,-3.48335,-0.401455,-0.0682758,-2.82557,-1.21211,1.00689,-3.3,2.2,0,11599,48.77,29.298,14288.6
184044290,0.634768,2.223,88.5927,-0.0259225,0.23716,0.997256,-3.55878,-0.693624,-0.0519158,-2.33567,-1.02073,0.657697,-3.3,2.2,0,11599,48.77,29.298,14288.6
184144660,0.634768,2.223,88.5744,-0.00961405,0.194545,0.997801,-3.59863,-0.872389,-0.0608049,-1.7588,-0.86946,0.383194,-3.3,2.2,0,11599,48.77,29.298,14288.6
184245091,0.634768,2.223,88.5553,0.00623605,0.161775,0.997566,-3.64265,-1.01379,-0.0623376,-1.50206,-0.546996,0.227483,-0.1,4,0,11599,48.77,29.298,14288.6
184345457,0.634768,2.223,88.5325,0.0262176,0.119789,0.999082,-3.66323,-1.11719,-0.0568026,-1.05266,-0.511837,0.526622,-0.1,4,0,11599,48.77,29.298,14288.6
184445824,0.634768,2.223,88.5234,0.122306,-0.0918741,0.99236,-3.67128,-1.1326,0.00491638,0.130324,-0.0255029,0.848001,-0.1,4,0,11599,48.77,29.298,14288.6
184546142,0.634768,2.223,88.5255,0.203507,-0.238934,0.968264,-3.64507,-0.877514,-0.0276998,2.32289,1.26895,-0.079872,-0.1,4,0,11599,48.77,29.298,14288.6
184646506,0.634768,2.223,88.5117,0.259766,-0.323981,0.94465,-3.61273,-0.487854,-0.066071,3.18486,1.70343,1.42119,-0.1,4,0,11599,48.691,31.829,15497.9
184746820,0.634768,2.223,88.5136,0.293429,-0.355166,0.931297,-3.56815,-0.0177291,-0.064609,3.70582,1.90598,1.98855,-0.1,4,0,11599,48.691,31.829,15497.9
184847185,0.634768,2.223,88.5612,0.293673,-0.334862,0.9334,-3.52437,0.478302,-0.0617851,3.85364,1.9923,1.90533,-0.1,4,0,11599,48.691,31.829,15497.9
184947536,0.634768,2.223,88.6106,0.262729,-0.281469,0.94488,-3.50402,0.924928,-0.0358463,3.28544,1.91826,1.63235,-0.1,4,0,11599,48.691,31.829,15497.9
185047861,0.634768,2.223,88.6474,0.223185,-0.212195,0.959802,-3.48521,1.27565,-0.0365006,2.69665,1.63978,0.562991,-0.1,4,0,11599,48.691,31.829,15497.9
185148286,0.634768,2.223,88.6398,0.191917,-0.155173,0.971019,-3.47633,1.54858,-0.0429501,2.04653,1.2673,0.462439,-0.1,4,0,11599,48.691,31.829,15497.9
185248678,0.634768,2.223,88.6335,0.168133,-0.105436,0.979196,-3.48167,1.75597,-0.049977,1.37131,1.11973,0.2558,-1.5,-2.5,0,11599,48.691,31.829,15497.9
185349004,0.634768,2.223,88.6187,0.127114,-0.0683062,0.987488,-3.49407,1.9174,-0.058378,0.986119,0.98308,0.225573,-1.5,-2.5,0,11599,48.691,31.829,15497.9
185449363,0.634768,2.223,88.6053,-0.117285,0.00960257,0.991458,-3.46921,2.01349,-0.0192941,0.599809,-0.0401703,0.628715,-1.5,-2.5,0,11599,48.691,31.829,15497.9
185549725,0.634767,2.223,88.6197,-0.308433,0.0648487,0.980991,-3.21667,1.83656,-0.0224797,-0.401979,-3.23379,0.223142,-1.5,-2.5,0,11599,48.691,31.829,15497.9
185650069,0.634767,2.223,88.6027,-0.410592,0.0911539,0.97271,-2.88831,1.54839,-0.0899486,-0.75738,-4.05371,1.44244,-1.5,-2.5,0,11599,48.632,30.599,14880.9
185750408,0.634767,2.223,88.5738,-0.459162,0.104861,0.96814,-2.4797,1.17786,-0.122336,-0.930312,-4.74319,2.49866,-1.5,-2.5,0,11599,48.632,30.599,14880.9
185850742,0.634767,2.223,88.5597,-0.475085,0.109543,0.967266,-2.02727,0.762369,-0.137078,-0.919845,-5.02843,2.78882,-1.5,-2.5,0,11599,48.632,30.599,14880.9
185951030,0.634767,2.223,88.5298,-0.465293,0.113418,0.966329,-1.56788,0.325378,-0.133116,-0.989488,-5.04182,3.11007,-1.5,-2.5,0,11599,48.632,30.599,14880.9
186051395,0.634767,2.223,88.554,-0.450811,0.115008,0.96753,-1.1355,-0.110566,-0.111292,-1.00496,-4.92652,2.6688,-1.5,-2.5,0,11599,48.632,30.599,14880.9
186153271,0.634767,2.223,88.5461,-0.428947,0.116717,0.968071,-0.721052,-0.531228,-0.0929765,-0.915025,-4.63017,2.81177,-1.5,-2.5,0,11599,48.632,30.599,14880.9
186261266,0.634767,2.223,88.5289,-0.409884,0.113623,0.969807,-0.340007,-0.938097,-0.0686511,-0.916276,-4.3364,2.2159,-3.4,-4.5,0,11599,48.632,30.599,14880.9
186367152,0.634767,2.223,88.5007,-0.342931,0.116113,0.97241,0.0751158,-1.39708,-0.0326158,-0.722773,-3.75331,2.37397,-3.4,-4.5,0,11599,48.632,30.599,14880.9
186467512,0.634767,2.223,88.5107,-0.314067,0.168327,0.966168,0.319263,-1.75273,-0.0167969,-1.30454,-3.35162,1.00034,-3.4,-4.5,0,11599,48.632,30.599,14880.9
186567852,0.634767,2.223,88.4776,-0.305348,0.204181,0.959124,0.514544,-2.13433,-0.0440555,-1.59855,-3.0255,1.40422,-3.4,-4.5,0,11599,48.632,30.599,14880.9
186668320,0.634767,2.223,88.4484,-0.30051,0.228065,0.95353,0.668462,-2.55473,-0.044645,-1.93504,-2.93786,1.61208,-3.4,-4.5,0,11599,48.69,29.68,14451.2
186768613,0.634767,2.223,88.4067,-0.301187,0.235927,0.950204,0.799965,-2.98247,-0.0262402,-2.02525,-2.83528,1.76597,-3.4,-4.5,0,11599,48.69,29.68,14451.2
186868982,0.634767,2.223,88.3866,-0.303639,0.230608,0.950707,0.918135,-3.41986,-0.0104535,-2.2001,-2.97991,1.18854,-3.4,-4.5,0,11599,48.69,29.68,14451.2
186969292,0.634767,2.223,88.3895,-0.281383,0.205842,0.957013,1.03549,-3.83233,0.00904359,-1.88302,-2.86246,1.54235,-3.4,-4.5,0,11599,48.69,29.68,14451.2
187069696,0.634767,2.223,88.3902,-0.245471,0.168906,0.966772,1.13527,-4.18826,0.0445692,-1.552,-2.39967,1.17017,-3.4,-4.5,0,11599,48.69,29.68,14451.2
187170106,0.634767,2.223,88.4032,-0.207898,0.132039,0.97479,1.21658,-4.48089,0.0686622,-1.10935,-2.13606,0.706337,-3.4,-4.5,0,11599,48.69,29.68,14451.2
187270567,0.634767,2.223,88.4416,-0.176142,0.0998099,0.980431,1.26921,-4.70743,0.0759688,-0.8289,-1.68317,0.12216,-2.3,3.3,0,11599,48.69,29.68,14451.2
187371148,0.634767,2.223,88.4791,-0.123107,0.0695501,0.983319,1.31405,-4.88312,0.0747908,-0.423735,-1.50544,-0.0897836,-2.3,3.3,0,11599,48.69,29.68,14451.2
187471550,0.634767,2.223,88.5119,0.116703,0.0102798,0.992539,1.32356,-5.00976,0.178098,-0.148381,-0.510907,0.191403,-2.3,3.3,0,11599,48.69,29.68,14451.2
187575329,0.634767,2.223,88.5661,0.348149,-0.0321927,0.988259,1.10532,-4.87965,0.150714,0.646498,2.82411,-0.451944,-2.3,3.3,0,11599,48.69,29.68,14451.2
187681506,0.634767,2.223,88.6012,0.451635,-0.0509146,0.981434,0.760582,-4.6431,0.0388653,0.831996,3.92481,1.12814,-2.3,3.3,0,11599,48.656,29.733,14466.9
187781862,0.634767,2.223,88.5804,0.501736,-0.066169,0.975114,0.334791,-4.33534,-0.0268809,0.790869,4.54373,2.1316,-2.3,3.3,0,11599,48.656,29.733,14466.9
187882231,0.634767,2.223,88.5707,0.521306,-0.0818244,0.966374,-0.11791,-3.97632,-0.0591965,1.01672,4.93142,2.24572,-2.3,3.3,0,11599,48.656,29.733,14466.9
187982585,0.634767,2.223,88.5657,0.521944,-0.0881996,0.962558,-0.572821,-3.57671,-0.0873147,1.17752,4.90654,2.73744,-2.3,3.3,0,11599,48.656,29.733,14466.9
188082970,0.634767,2.223,88.5383,0.511868,-0.0881838,0.962613,-1.01509,-3.17154,-0.109597,1.19512,4.82622,2.84894,-2.3,3.3,0,11599,48.656,29.733,14466.9
188183396,0.634767,2.223,88.5074,0.502398,-0.0875118,0.963204,-1.45477,-2.76632,-0.0891763,1.04155,4.57265,3.03679,-2.3,3.3,0,11599,48.656,29.733,14466.9
188283800,0.634767,2.223,88.5082,0.481229,-0.0812273,0.965534,-1.87218,-2.35924,-0.0837372,1.17161,4.74891,2.36065,1.9,-4.6,0,11599,48.656,29.733,14466.9
188384195,0.634767,2.223,88.5082,0.447576,-0.0766988,0.969545,-2.25335,-1.96971,-0.0737934,1.09812,4.23759,2.44549,1.9,-4.6,0,11599,48.656,29.733,14466.9
188484567,0.634767,2.223,88.5158,0.249216,-0.128248,0.98608,-2.60734,-1.59166,-0.0131211,1.07239,3.83281,2.44907,1.9,-4.6,0,11599,48.656,29.733,14466.9
188584959,0.634767,2.223,88.5142,-0.0762002,-0.196931,1.01137,-2.67336,-1.33754,0.0527094,1.74012,0.98888,0.31256,1.9,-4.6,0,11599,48.656,29.733,14466.9
188685405,0.634767,2.223,88.5054,-0.287837,-0.221439,1.02662,-2.40086,-1.22599,-0.0149486,2.20704,-2.2325,0.17562,1.9,-4.6,0,11599,48.656,29.733,14466.9
188785759,0.634767,2.223,88.4725,-0.390262,-0.235926,1.03676,-1.94873,-1.19085,-0.0774048,2.24437,-3.48971,1.83986,1.9,-4.6,0,11599,48.529,31.049,15067.8
188887611,0.634767,2.223,88.4621,-0.424884,-0.242284,1.03911,-1.2551,-1.19224,-0.0741184,2.5004,-4.32151,2.5934,1.9,-4.6,0,11599,48.529,31.049,15067.8
188990695,0.634767,2.223,88.4203,-0.415885,-0.245888,1.03781,-0.654641,-1.19109,-0.0636443,2.49948,-4.24245,2.788,1.9,-4.6,0,11599,48.529,31.049,15067.8
189091054,0.634767,2.223,88.4029,-0.40095,-0.243983,1.03573,-0.0576038,-1.17572,-0.0462825,2.53576,-4.00248,2.80757,1.9,-4.6,0,11599,48.529,31.049,15067.8
189191478,0.634767,2.223,88.361,-0.384652,-0.241855,1.03537,0.519256,-1.17338,-0.024646,2.4184,-3.92803,2.52945,1.9,-4.6,0,11599,48.529,31.049,15067.8
189291920,0.634767,2.223,88.3393,-0.367636,-0.238078,1.03371,1.08322,-1.16705,-0.00490252,2.35432,-3.70183,2.35452,2.5,-0.2,0,11599,48.529,31.049,15067.8
189392309,0.634767,2.223,88.3442,-0.320308,-0.238053,1.02534,1.6249,-1.17038,0.0180402,2.31238,-3.66155,1.94415,2.5,-0.2,0,11599,48.529,31.049,15067.8
189492687,0.634767,2.223,88.3502,-0.0625588,-0.265731,0.983985,2.10953,-1.13566,0.0996869,2.2003,-2.48037,2.13552,2.5,-0.2,0,11599,48.529,31.049,15067.8
189593076,0.634767,2.223,88.34,0.169778,-0.267235,0.960853,2.32025,-0.904388,0.151827,2.61193,0.510426,0.986282,2.5,-0.2,0,11599,48.529,31.049,15067.8
189693433,0.634767,2.223,88.3184,0.297807,-0.260531,0.955009,2.33529,-0.603508,0.084221,2.33471,2.2951,0.811594,2.5,-0.2,0,11599,48.529,31.049,15067.8
189793794,0.634767,2.223,88.3204,0.358163,-0.257573,0.95519,2.2646,-0.240442,0.0617917,2.25354,3.02958,2.0045,2.5,-0.2,0,11599,48.735,28.763,14017.6
189894085,0.634768,2.223,88.3732,0.365053,-0.247887,0.960588,2.14312,0.1485,0.0748105,2.36499,3.59287,1.66697,2.5,-0.2,0,11599,48.735,28.763,14017.6
189994450,0.634768,2.223,88.4279,0.325828,-0.216481,0.973199,2.00947,0.503,0.0680147,2.07387,3.38754,1.5838,2.5,-0.2,0,11599,48.735,28.763,14017.6
190096414,0.634768,2.223,88.4743,0.27562,-0.188263,0.981747,1.89685,0.787128,0.0672424,1.72749,2.87482,1.17787,2.5,-0.2,0,11599,48.735,28.763,14017.6
190201782,0.634768,2.223,88.511,0.227738,-0.165949,0.98626,1.82815,1.00323,0.0713755,1.4882,2.22493,0.577731,2.5,-0.2,0,11599,48.735,28.763,14017.6
190302193,0.634768,2.223,88.5063,0.18828,-0.145714,0.987991,1.76855,1.17773,0.0518827,1.2463,1.96159,0.109217,-3.7,-3.8,0,11599,48.735,28.763,14017.6
190402567,0.634768,2.223,88.4964,0.150171,-0.11685,0.988237,1.7282,1.30563,0.0279066,0.88905,1.41638,0.571596,-3.7,-3.8,0,11599,48.735,28.763,14017.6
190502970,0.634768,2.223,88.4924,0.0186768,0.0913582,0.993509,1.70188,1.41242,0.0477361,0.570596,1.0673,0.40261,-3.7,-3.8,0,11599,48.735,28.763,14017.6
190603371,0.634768,2.223,88.5089,-0.119995,0.286426,0.973226,1.67569,1.17276,0.0726709,-2.40481,-0.840992,0.14114,-3.7,-3.8,0,11599,48.735,28.763,14017.6
190703749,0.634768,2.223,88.4767,-0.204163,0.390769,0.947595,1.66117,0.758206,-0.0312046,-3.65546,-1.7784,0.579288,-3.7,-3.8,0,11599,48.735,28.763,14017.6
190804090,0.634768,2.223,88.4367,-0.243947,0.439261,0.931739,1.62342,0.196217,-0.0697721,-4.30143,-2.10178,2.65971,-3.7,-3.8,0,11555,48.595,30.325,14736.4
190904454,0.634768,2.223,88.4304,-0.248499,0.449823,0.928253,1.59631,-0.564956,-0.0567508,-4.46487,-2.39173,3.25638,-3.7,-3.8,0,11555,48.595,30.325,14736.4
191004807,0.634768,2.223,88.4351,-0.233663,0.440819,0.931278,1.54876,-1.17975,-0.0378455,-4.51088,-2.17926,2.89716,-3.7,-3.8,0,11555,48.595,30.325,14736.4
191105174,0.634768,2.223,88.4154,-0.221862,0.427734,0.936345,1.50047,-1.75511,-0.057144,-4.34674,-2.00343,2.53486,-3.7,-3.8,0,11555,48.595,30.325,14736.4
191205534,0.634768,2.223,88.427,-0.213049,0.416465,0.939853,1.4473,-2.32699,-0.0357731,-4.23439,-2.00172,2.67768,-3.7,-3.8,0,11555,48.595,30.325,14736.4
191305932,0.634768,2.223,88.4386,-0.202095,0.398499,0.944343,1.39336,-2.85999,-0.0302714,-4.06495,-1.91899,2.0639,-4.4,0.2,0,11555,48.595,30.325,14736.4
191406294,0.634768,2.223,88.4292,-0.177873,0.371545,0.950765,1.33902,-3.36098,-0.0165685,-3.74272,-1.7852,2.42575,-4.4,0.2,0,11555,48.595,30.325,14736.4
191506621,0.634768,2.223,88.4605,0.0516679,0.298191,0.997978,1.24669,-3.81006,0.115618,-3.39571,-1.05675,1.78851,-4.4,0.2,0,11555,48.595,30.325,14736.4
191606986,0.634768,2.223,88.4859,0.2569,0.233542,1.02676,0.994626,-3.96879,0.100123,-2.48136,1.69016,0.076169,-4.4,0.2,0,11555,48.595,30.325,14736.4
191707347,0.634768,2.223,88.4587,0.365295,0.195132,1.02725,0.631517,-3.97621,0.00376973,-1.80257,3.12669,0.764222,-4.4,0.2,0,11555,48.595,30.325,14736.4
191807677,0.634768,2.223,88.4752,0.411961,0.176794,1.02346,0.176772,-3.90747,-0.0176126,-1.56221,3.8443,1.70652,-4.4,0.2,0,11555,48.537,32.156,15607.6
191908059,0.634768,2.223,88.5314,0.420904,0.17692,1.02053,-0.300616,-3.80611,-0.0175806,-1.49663,3.98255,1.79595,-4.4,0.2,0,11555,48.537,32.156,15607.6
192008409,0.634768,2.223,88.5638,0.398739,0.17746,1.01577,-0.774377,-3.70508,-0.02744,-1.54871,3.861,1.83729,-4.4,0.2,0,11555,48.537,32.156,15607.6
192108783,0.634768,2.223,88.5894,0.33821,0.165709,1.00756,-1.22138,-3.60369,-0.0106335,-1.37442,3.50892,1.62826,-4.4,0.2,0,11555,48.537,32.156,15607.6
192209073,0.634768,2.223,88.58,0.267313,0.149122,1.00201,-1.58085,-3.51076,-0.0207499,-1.16285,2.93326,0.724814,-4.4,0.2,0,11555,48.537,32.156,15607.6
192309472,0.634768,2.223,88.5971,0.200391,0.134651,0.998791,-1.8676,-3.45093,-0.0310191,-1.18797,2.17593,0.0398504,-0.3,-3.3,0,11555,48.537,32.156,15607.6
192409779,0.634768,2.223,88.6039,0.134895,0.0950628,0.991708,-2.0966,-3.40989,-0.0398639,-1.01676,1.56046,0.128148,-0.3,-3.3,0,11555,48.537,32.156,15607.6
192510203,0.634768,2.223,88.6059,-0.0565219,-0.107498,0.992641,-2.22979,-3.34652,0.0135549,-0.0699418,0.638108,0.388933,-0.3,-3.3,0,11555,48.537,32.156,15607.6
192610595,0.634768,2.223,88.6366,-0.213229,-0.242909,1.01981,-2.03117,-3.2183,-0.00113904,2.22483,-1.79227,-0.241942,-0.3,-3.3,0,11555,48.537,32.156,15607.6
192710979,0.634768,2.223,88.6392,-0.311235,-0.321899,1.04645,-1.66519,-3.05922,-0.0949584,3.08364,-2.74847,1.00592,-0.3,-3.3,0,11555,48.537,32.156,15607.6
192811338,0.634768,2.223,88.6217,-0.35522,-0.351566,1.05924,-1.16388,-2.87314,-0.118995,3.47481,-3.20201,2.62597,-0.3,-3.3,0,11555,48.537,32.156,15607.6
192911692,0.634768,2.223,88.6536,-0.366853,-0.354129,1.06244,-0.595509,-2.67971,-0.101239,3.78221,-3.52847,2.80519,-0.3,-3.3,0,11555,48.537,32.156,15607.6
193012043,0.634768,2.223,88.6591,-0.363217,-0.338879,1.05929,-0.0376233,-2.4933,-0.106115,3.66392,-3.41982,2.49604,-0.3,-3.3,0,11555,48.537,32.156,15607.6
193112332,0.634768,2.223,88.6662,-0.345514,-0.309653,1.05164,0.510163,-2.33142,-0.101383,3.5177,-3.51193,2.4026,-0.3,-3.3,0,11555,48.537,32.156,15607.6
193212693,0.634768,2.223,88.6612,-0.296238,-0.254994,1.03566,1.01664,-2.20243,-0.0915143,3.03101,-3.27078,1.74415,-0.3,-3.3,0,11555,48.537,32.156,15607.6
193313054,0.634768,2.223,88.6502,-0.241519,-0.195475,1.02113,1.44063,-2.10459,-0.0735494,2.40533,-2.70648,1.41007,-3.7,-3.7,0,11555,48.537,32.156,15607.6
193413425,0.634768,2.223,88.6177,-0.190789,-0.11535,1.00819,1.7773,-2.04356,-0.0658658,1.81167,-2.04727,1.31868,-3.7,-3.7,0,11555,48.548,31.541,15312.5
193513745,0.634768,2.223,88.6195,-0.127153,0.127584,0.994421,2.0143,-2.04775,0.0113609,0.483052,-1.51516,0.29544,-3.7,-3.7,0,11555,48.548,31.541,15312.5
193614155,0.634768,2.223,88.5804,-0.103615,0.298852,0.981243,2.02097,-2.25744,-0.0613405,-2.22436,-0.906082,-0.181539,-3.7,-3.7,0,11555,48.548,31.541,15312.5
193714534,0.634768,2.223,88.5278,-0.0973745,0.393854,0.972184,1.94739,-2.60031,-0.119964,-3.26941,-0.838774,1.4122,-3.7,-3.7,0,11555,48.548,31.541,15312.5
193814888,0.634768,2.223,88.4941,-0.0927419,0.43974,0.964372,1.80565,-3.04948,-0.118785,-4.06207,-0.750945,2.22135,-3.7,-3.7,0,11555,48.548,31.541,15312.5
193915204,0.634768,2.223,88.4904,-0.0823549,0.418448,0.964672,1.6269,-3.53224,-0.104837,-4.23874,-0.692195,2.47837,-3.7,-3.7,0,11555,48.548,31.541,15312.5
194015510,0.634768,2.223,88.4843,-0.0670669,0.356091,0.969568,1.46716,-3.96421,-0.0605869,-3.73018,-0.590435,1.78418,-3.7,-3.7,0,11555,48.548,31.541,15312.5
194115835,0.634768,2.223,88.4847,-0.0512431,0.28246,0.975918,1.3165,-4.30931,-0.0287147,-3.03545,-0.239719,1.46895,-3.7,-3.7,0,11555,48.548,31.541,15312.5
194216246,0.634768,2.223,88.5043,-0.0447588,0.219971,0.980482,1.20042,-4.57069,-0.0221757,-2.23593,-0.257446,0.546737,-3.7,-3.7,0,11555,48.548,31.541,15312.5
194316637,0.634768,2.223,88.5204,-0.0435151,0.16053,0.984904,1.11814,-4.77684,-0.0147414,-1.61608,-0.201285,0.460072,1.8,4.8,0,11555,48.548,31.541,15312.5
194416996,0.634768,2.223,88.511,-0.0331423,0.110502,0.988331,1.06415,-4.92904,-0.0148482,-1.02953,-0.183215,-0.00347,1.8,4.8,0,11555,48.516,31.021,15050.1
194517353,0.634768,2.223,88.5271,0.122244,-0.0487476,0.990855,1.02109,-5.03436,0.0584467,-0.348686,0.062594,0.937586,1.8,4.8,0,11555,48.516,31.021,15050.1
194617706,0.634768,2.223,88.5519,0.260384,-0.151419,0.973274,0.902806,-4.85298,0.0480903,1.43415,2.32861,-0.196359,1.8,4.8,0,11555,48.516,31.021,15050.1
194718066,0.634768,2.223,88.5437,0.353302,-0.218172,0.952909,0.736694,-4.54309,-0.0158703,2.08317,3.0821,1.2034,1.8,4.8,0,11555,48.516,31.021,15050.1
194818435,0.634768,2.223,88.5703,0.398694,-0.243138,0.942734,0.527951,-4.1174,-0.0210494,2.45491,3.71236,2.11548,1.8,4.8,0,11555,48.516,31.021,15050.1
194918833,0.634768,2.223,88.5668,0.420532,-0.253659,0.937128,0.308807,-3.65262,-0.0414855,2.60875,3.79812,2.25845,1.8,4.8,0,11555,48.516,31.021,15050.1
195019182,0.634768,2.223,88.5706,0.422079,-0.251502,0.938175,0.0787073,-3.17145,-0.0586943,2.6326,3.99877,2.25242,1.8,4.8,0,11555,48.516,31.021,15050.1
195119522,0.634768,2.223,88.5811,0.418068,-0.248619,0.940655,-0.152559,-2.67704,-0.050879,2.64646,4.03858,2.41355,1.8,4.8,0,11555,48.516,31.021,15050.1
195219843,0.634768,2.223,88.6264,0.406375,-0.24319,0.944187,-0.366772,-2.20624,-0.0626396,2.53992,3.95658,1.84642,1.8,4.8,0,11555,48.516,31.021,15050.1
195320278,0.634768,2.223,88.6248,0.393385,-0.236564,0.947748,-0.570267,-1.7499,-0.0668225,2.46258,3.76296,1.86142,6.35693,2.316,0,11555,48.516,31.021,15050.1
195420623,0.634768,2.223,88.6285,0.364015,-0.221723,0.953853,-0.761821,-1.29987,-0.0628652,2.32755,3.62073,1.77969,6.40809,2.26121,0,11555,48.481,30.943,15001.5
195520977,0.634768,2.223,88.6199,0.243747,-0.184,0.970809,-0.926323,-0.87401,-0.0463506,2.10602,3.06735,1.78808,6.5204,2.14743,0,11555,48.481,30.943,15001.5
195621334,0.634768,2.223,88.6173,0.115471,-0.142911,0.983812,-0.972429,-0.599331,-0.0446876,1.63852,1.61395,0.470871,6.575,2.03555,0,11555,48.481,30.943,15001.5
195721685,0.634768,2.223,88.5811,0.015903,-0.107207,0.989953,-0.929669,-0.427177,-0.0542841,1.24152,0.492033,-0.114216,6.59318,1.97019,0,11555,48.481,30.943,15001.5
195822028,0.634768,2.223,88.533,-0.0368373,-0.0869267,0.99144,-0.815762,-0.344668,-0.064797,0.88042,-0.406375,0.313092,6.59938,1.93546,0,11555,48.481,30.943,15001.5
195923479,0.634768,2.223,88.4632,-0.0555059,-0.0737135,0.991367,-0.682542,-0.298886,-0.04147,0.659582,-0.649247,0.643721,6.59591,1.91329,0,11555,48.481,30.943,15001.5
196026844,0.634768,2.223,88.441,-0.0556296,-0.0659498,0.991188,-0.484805,-0.265482,-0.0156082,0.673148,-0.899857,0.285787,6.56178,1.91803,0,11555,48.481,30.943,15001.5
196127202,0.634768,2.223,88.4289,-0.0433397,-0.0581151,0.990753,-0.343879,-0.245358,-0.00642721,0.48426,-0.669291,0.0282355,6.5456,1.91695,0,11555,48.481,30.943,15001.5
196227570,0.634768,2.223,88.4281,-0.0276562,-0.050586,0.990533,-0.213009,-0.226389,-0.000818945,0.425973,-0.525059,0.397494,6.51755,1.95393,0,11555,48.481,30.943,15001.5
196327957,0.634768,2.223,88.4399,-0.00609165,-0.0421948,0.990614,-0.0967445,-0.208119,0.0195136,0.400034,-0.356685,0.0240321,6.50225,1.96946,0,11555,48.481,30.943,15001.5
196428330,0.634768,2.223,88.4293,0.0129737,-0.0419619,0.991531,-0.00748105,-0.193188,0.00540421,0.278441,-0.0642565,-0.203236,6.48172,2.02389,0,11467,48.502,29.867,14486.1
196528665,0.634768,2.223,88.4056,0.0585123,-0.148873,0.987317,0.0838922,-0.152996,0.0442334,0.721239,0.133947,0.299658,6.39053,2.09066,0,11467,48.502,29.867,14486.1
196629031,0.634768,2.223,88.3944,0.0963768,-0.26127,0.978683,0.198479,0.0201075,0.0234363,1.92698,0.596303,0.16035,6.21254,2.13572,0,11467,48.502,29.867,14486.1
196729394,0.634768,2.223,88.3844,0.123085,-0.333569,0.970072,0.340478,0.290337,0.017443,2.77763,0.812257,1.02112,6.04264,2.19851,0,11467,48.502,29.867,14486.1
196830135,0.634768,2.223,88.3824,0.143433,-0.367823,0.963532,0.499792,0.633611,0.0240692,3.17436,1.02084,1.72046,5.93007,2.24591,0,11467,48.502,29.867,14486.1
196930602,0.634768,2.223,88.386,0.156008,-0.377282,0.960501,0.648732,0.992435,0.0397139,3.39467,1.21947,1.5113,5.8676,2.30326,0,11467,48.502,29.867,14486.1
197031025,0.634768,2.223,88.3851,0.165126,-0.374745,0.958622,0.793162,1.36437,0.0428419,3.4598,1.2226,1.5493,5.82452,2.3434,0,11467,48.502,29.867,14486.1
197131399,0.634768,2.223,88.3851,0.173577,-0.366987,0.958876,0.922949,1.73154,0.0479772,3.37609,1.24763,1.5665,5.77833,2.38439,0,11467,48.502,29.867,14486.1
197231812,0.634768,2.223,88.3962,0.180956,-0.35781,0.958755,1.03413,2.08722,0.0600227,3.14073,1.36996,1.59222,5.72343,2.40985,0,11467,48.502,29.867,14486.1
197332229,0.634768,2.223,88.4121,0.186735,-0.347136,0.959217,1.132,2.42605,0.0643882,2.91302,1.34952,1.45054,5.6544,2.43588,0,11467,48.502,29.867,14486.1
197432551,0.634768,2.223,88.435,0.195506,-0.337002,0.958915,1.21815,2.75375,0.0560333,2.93538,1.45558,1.05399,5.57096,2.45161,0,11467,48.528,28.137,13654.3
197532931,0.634768,2.223,88.4478,0.204093,-0.326614,0.959112,1.29494,3.06841,0.0448099,2.67302,1.42974,1.38764,5.47068,2.46664,0,11467,48.528,28.137,13654.3
197633276,0.634768,2.223,88.4721,0.215451,-0.316106,0.958811,1.35762,3.36885,0.0369337,2.50843,1.48554,1.01966,5.36236,2.47307,0,11467,48.528,28.137,13654.3
197733651,0.634768,2.223,88.4644,0.227891,-0.304456,0.95762,1.39136,3.67479,0.0254456,2.37924,1.74528,1.25112,5.23601,2.48726,0,11467,48.528,28.137,13654.3
197834245,0.634769,2.223,88.4598,0.241718,-0.291543,0.95771,1.41117,3.96975,0.0234203,2.2609,1.94199,0.953409,5.10965,2.48396,0,11467,48.528,28.137,13654.3
197935764,0.634769,2.223,88.4644,0.255281,-0.278691,0.958442,1.41376,4.26767,0.00861851,2.15295,1.98952,1.32923,4.96997,2.47825,0,11467,48.528,28.137,13654.3
198036121,0.634769,2.223,88.4686,0.258362,-0.250363,0.962282,1.40687,4.55427,0.0126036,2.05016,2.07492,1.10583,4.85392,2.4543,0,11467,48.528,28.137,13654.3
198136478,0.634769,2.223,88.5014,0.243093,-0.205529,0.970635,1.38217,4.80148,0.0149283,1.58897,1.92599,0.815151,4.74888,2.41622,0,11467,48.528,28.137,13654.3
198236827,0.634769,2.223,88.5042,0.220822,-0.15641,0.977672,1.33847,4.98315,0.0105783,0.993601,1.73184,0.849176,4.62874,2.36956,0,11467,48.528,28.137,13654.3
198337237,0.634769,2.223,88.5049,0.195695,-0.105315,0.984545,1.28863,5.11564,0.0232795,0.572361,1.58093,0.466473,4.49693,2.32433,0,11467,48.528,28.137,13654.3
198437581,0.634769,2.223,88.5411,0.173219,-0.061689,0.988934,1.23935,5.18791,0.0102197,0.0907063,1.16643,0.539569,4.32468,2.26913,0,11467,48.584,27.599,13408.7
198537915,0.634769,2.223,88.5519,0.154402,-0.021315,0.993328,1.18513,5.21331,0.00503879,-0.329002,1.086,-0.15911,4.15433,2.21579,0,11467,48.584,27.599,13408.7
198638283,0.634769,2.223,88.5704,0.13794,0.010164,0.994921,1.12155,5.19428,-0.0137384,-0.672782,0.920667,0.172057,3.97507,2.16267,0,11467,48.584,27.599,13408.7
198738650,0.634769,2.223,88.545,0.123785,0.0423682,0.997483,1.06195,5.13387,-0.0124524,-0.954583,0.615811,0.595272,3.80159,2.10899,0,11467,48.584,27.599,13408.7
198839087,0.634769,2.223,88.5629,0.112581,0.0654699,0.998388,0.99488,5.0497,-0.0167545,-1.24294,0.542545,0.17013,3.62553,2.05322,0,11467,48.584,27.599,13408.7
198939450,0.634769,2.223,88.5679,0.103639,0.0839254,0.99963,0.934864,4.93799,-0.0530303,-1.45069,0.360152,0.0169434,3.46219,2.00172,0,11467,48.584,27.599,13408.7
199041723,0.634769,2.223,88.5588,0.0982174,0.0977195,1.00014,0.860791,4.80625,-0.0614552,-1.59962,0.373852,0.28647,3.29984,1.9465,0,11467,48.584,27.599,13408.7
199143742,0.634769,2.223,88.5755,0.0932028,0.106801,1.00059,0.78437,4.66673,-0.0654759,-1.63864,0.23137,0.43528,3.15518,1.89729,0,11467,48.584,27.599,13408.7
199244116,0.634769,2.223,88.5809,0.0846524,0.113304,1.00026,0.700147,4.52241,-0.077643,-1.72865,0.239571,0.430033,3.01204,1.84513,0,11467,48.584,27.599,13408.7
199344516,0.634769,2.223,88.5896,0.0780759,0.114986,1.00035,0.597846,4.3412,-0.0774521,-1.78594,0.30561,-0.0577002,2.8837,1.79433,0,11467,48.584,27.599,13408.7
199446465,0.634769,2.223,88.6101,0.0696792,0.110202,0.999544,0.517381,4.18912,-0.078588,-1.66397,0.113746,0.18824,2.76179,1.74414,0,11467,48.506,29.176,14152.1
199549278,0.634769,2.223,88.6289,0.0628607,0.103,0.998686,0.444649,4.03996,-0.0869203,-1.60823,0.0259381,0.298655,2.65109,1.69275,0,11467,48.506,29.176,14152.1
199649647,0.634769,2.223,88.6415,0.0571549,0.0945273,0.997001,0.37112,3.89644,-0.0856456,-1.58989,-0.00397653,0.249054,2.5417,1.64181,0,11467,48.506,29.176,14152.1
199749999,0.634769,2.223,88.6498,0.0523194,0.0844542,0.996291,0.292516,3.7649,-0.0966755,-1.45138,0.0837965,0.184889,2.43565,1.57989,0,11467,48.506,29.176,14152.1
199850331,0.634769,2.223,88.6786,0.0440558,0.0776627,0.996042,0.23419,3.6443,-0.103457,-1.30817,-0.0628929,-0.228673,2.33422,1.51783,0,11467,48.506,29.176,14152.1
199950627,0.634769,2.223,88.6997,0.0329401,0.0721747,0.995139,0.188253,3.52458,-0.11329,-1.21134,-0.23208,0.144184,2.24203,1.45261,0,11467,48.506,29.176,14152.1
200051035,0.634769,2.223,88.7184,0.0271147,0.0671715,0.994874,0.149725,3.41007,-0.114798,-1.1294,-0.272075,-0.208526,2.14927,1.38701,0,11467,48.506,29.176,14152.1
200151374,0.634769,2.223,88.7088,0.0197186,0.0642311,0.993405,0.117526,3.29835,-0.13244,-1.06417,-0.331581,0.0990733,2.06299,1.3199,0,11467,48.506,29.176,14152.1
200251725,0.634769,2.223,88.7183,0.0129614,0.060973,0.993451,0.0934535,3.18521,-0.133165,-1.01937,-0.474442,0.00827941,1.97786,1.25351,0,11467,48.506,29.176,14152.1
200352123,0.634769,2.223,88.7381,0.00891523,0.0558233,0.992251,0.070645,3.07403,-0.127583,-0.965519,-0.486098,0.0698171,1.89751,1.1859,0,11467,48.506,29.176,14152.1
200452485,0.634769,2.223,88.7307,0.00271106,0.0526648,0.992702,0.0417093,2.97353,-0.137131,-0.963895,-0.372566,0.0938132,1.81859,1.11957,0,11467,48.596,28.522,13860.6
200552809,0.634769,2.223,88.7378,-0.0046217,0.049867,0.992648,0.0325205,2.87757,-0.133062,-0.76889,-0.603617,0.104457,1.74258,1.05101,0,11467,48.596,28.522,13860.6
200653092,0.634769,2.223,88.7134,-0.00768345,0.049657,0.992534,0.0296576,2.77525,-0.138785,-0.814086,-0.710167,0.0557676,1.66667,0.987858,0,11467,48.596,28.522,13860.6
200753451,0.634769,2.223,88.6963,-0.0115703,0.0476142,0.991952,0.0207837,2.67689,-0.133568,-0.795934,-0.602664,0.142242,1.59328,0.924189,0,11467,48.596,28.522,13860.6
200853807,0.634769,2.223,88.6663,-0.0147748,0.0447804,0.991794,0.0213952,2.58514,-0.136413,-0.649508,-0.662524,0.181498,1.5226,0.86559,0,11467,48.596,28.522,13860.6
200954164,0.634769,2.223,88.6468,-0.0174989,0.0439993,0.991398,0.0219808,2.48602,-0.131261,-0.727121,-0.722594,-0.168585,1.45419,0.805566,0,11467,48.596,28.522,13860.6
201054498,0.634769,2.223,88.6342,-0.0183,0.0437496,0.991156,0.0302555,2.39472,-0.125604,-0.597971,-0.762668,0.098538,1.38835,0.75017,0,11467,48.596,28.522,13860.6
201154767,0.634769,2.223,88.5906,-0.0174242,0.0418588,0.990847,0.0365996,2.29189,-0.121277,-0.724679,-0.830196,0.692426,1.32485,0.694994,0,11467,48.596,28.522,13860.6
201255062,0.634769,2.223,88.5746,-0.0188004,0.0419125,0.990795,0.0484834,2.19052,-0.0955027,-0.702993,-0.833882,0.327956,1.26376,0.645082,0,11467,48.596,28.522,13860.6
201355438,0.634769,2.223,88.5421,-0.0173582,0.0428574,0.990931,0.0599414,2.09407,-0.0876297,-0.662609,-0.83118,0.365993,1.20683,0.595722,0,11467,48.596,28.522,13860.6
201455749,0.634769,2.223,88.5095,-0.0165339,0.0439547,0.991272,0.0527893,2.00089,-0.0666182,-0.743188,-0.702891,0.29094,1.15275,0.550752,0,11467,48.596,28.522,13860.6
201556115,0.634769,2.223,88.5109,-0.0172183,0.0407476,0.99098,0.055085,1.9016,-0.0520648,-0.669166,-0.772209,0.304982,1.10327,0.506496,0,11467,48.681,25.13,12233.5
201656480,0.634769,2.223,88.5063,-0.0163549,0.0378069,0.991148,0.0600994,1.81175,-0.0377752,-0.613867,-0.743437,0.161599,1.05571,0.465465,0,11467,48.681,25.13,12233.5
201756855,0.634769,2.223,88.4771,-0.0147818,0.0350504,0.991395,0.0589732,1.72438,-0.0431764,-0.589426,-0.623227,0.0891049,1.01235,0.42877,0,11467,48.681,25.13,12233.5
201857229,0.634769,2.223,88.4639,-0.0146615,0.0329421,0.99104,0.0661537,1.64175,-0.0224017,-0.47973,-0.735696,0.439437,0.971724,0.389913,0,11467,48.681,25.13,12233.5
201957601,0.634769,2.223,88.4353,-0.0144591,0.0319141,0.991203,0.0716609,1.56098,-0.008601,-0.515968,-0.684647,0.18843,0.934988,0.35277,0,11467,48.681,25.13,12233.5
202057931,0.634769,2.223,88.4166,-0.01463,0.0288743,0.991292,0.0780267,1.48206,0.00970502,-0.459667,-0.72043,0.33361,0.897527,0.318745,0,11467,48.681,25.13,12233.5
202158235,0.634769,2.223,88.4089,-0.0149587,0.0277811,0.991059,0.0761469,1.41972,0.0271213,-0.426342,-0.47592,-0.18539,0.863225,0.288883,0,11467,48.681,25.13,12233.5
202258627,0.634769,2.223,88.3992,-0.0162942,0.0279357,0.991469,0.0842305,1.35349,0.0134028,-0.400016,-0.610601,-0.127907,0.834479,0.256705,0,11467,48.681,25.13,12233.5
202359028,0.634769,2.223,88.3846,-0.017333,0.0274739,0.990702,0.0900703,1.27926,0.0191148,-0.441781,-0.652104,0.319537,0.804609,0.226218,0,11467,48.681,25.13,12233.5
202459393,0.634769,2.223,88.3727,-0.0132052,0.0252659,0.99125,0.109944,1.20205,0.0415427,-0.423249,-0.716204,0.237017,0.775244,0.199959,0,11467,48.681,25.13,12233.5
202559781,0.634769,2.223,88.369,-0.00952986,0.0222271,0.991006,0.113677,1.13324,0.0446123,-0.422186,-0.546564,-0.0128845,0.750884,0.174469,0,11467,48.662,25.561,12438.5
202660112,0.634769,2.223,88.3689,-0.00731444,0.0192732,0.991065,0.128682,1.07546,0.0385601,-0.286624,-0.577346,-0.00429654,0.72632,0.152005,0,11467,48.662,25.561,12438.5
202760512,0.634769,2.223,88.3646,-0.00465376,0.0169094,0.99108,0.137507,1.01827,0.0410932,-0.24176,-0.506479,-0.00434623,0.70589,0.130111,0,11467,48.662,25.561,12438.5
202860859,0.634769,2.223,88.3521,-0.00299369,0.0139654,0.991327,0.136986,0.968842,0.0526757,-0.249891,-0.356597,0.146878,0.68383,0.111645,0,11467,48.662,25.561,12438.5
202961235,0.634769,2.223,88.3473,-0.000643816,0.012859,0.991123,0.150594,0.923431,0.0725337,-0.148192,-0.488247,0.163018,0.663429,0.0958256,0,11467,48.662,25.561,12438.5
203061606,0.634769,2.223,88.3433,0.00181234,0.0129687,0.990898,0.153584,0.878664,0.0714394,-0.191333,-0.354686,0.290597,0.645144,0.0797765,0,11467,48.662,25.561,12438.5
203161964,0.634769,2.223,88.3285,0.00270682,0.0122141,0.991196,0.16021,0.835084,0.0620502,-0.170947,-0.38264,-0.113742,0.626683,0.066684,0,11467,48.662,25.561,12438.5
203262330,0.634769,2.223,88.3058,0.00614884,0.0133522,0.990766,0.158663,0.795228,0.070367,-0.212282,-0.291553,0.160874,0.610148,0.052453,0,11467,48.662,25.561,12438.5
203362744,0.634769,2.223,88.2744,0.00928024,0.014271,0.990598,0.150041,0.753582,0.0767909,-0.243207,-0.204103,0.16971,0.595081,0.0392969,0,11467,48.662,25.561,12438.5
203463081,0.634769,2.223,88.2866,0.00568267,0.0144766,0.990614,0.145489,0.713377,0.0819563,-0.206113,-0.295529,0.0892609,0.579049,0.0273145,0,11467,48.662,25.561,12438.5
203563396,0.634769,2.223,88.2762,0.00255326,0.0139244,0.990707,0.145236,0.670488,0.0890145,-0.232715,-0.282619,0.0165881,0.567201,0.0152998,0,11467,48.612,26.982,13116.5
203663762,0.634769,2.223,88.2971,0.000132604,0.0129936,0.990504,0.135739,0.626088,0.0881462,-0.270803,-0.204866,0.295819,0.554257,0.00593498,0,11467,48.612,26.982,13116.5
203764095,0.634769,2.223,88.2948,0.00192886,0.0121132,0.990866,0.136826,0.58895,0.0984792,-0.18279,-0.181738,-0.207137,0.544809,-0.00372214,0,11467,48.612,26.982,13116.5
203864407,0.634769,2.223,88.3042,0.00283989,0.0110323,0.990557,0.132705,0.544075,0.0801633,-0.196635,-0.206039,0.00363979,0.533635,-0.0116225,0,11467,48.612,26.982,13116.5
203964764,0.634769,2.223,88.3026,0.00302836,0.00832038,0.990307,0.142545,0.499463,0.0912709,-0.185479,-0.36637,0.0261261,0.523636,-0.0183377,0,11467,48.612,26.982,13116.5
204065110,0.634769,2.223,88.3128,0.00642218,0.00710343,0.989405,0.140347,0.456923,0.092674,-0.171457,-0.236553,0.179867,0.513617,-0.0235565,0,11467,48.612,26.982,13116.5
204165424,0.634769,2.223,88.3448,0.00758596,0.00469809,0.989095,0.142598,0.436528,0.0922245,-0.0932038,-0.208506,-0.345165,0.503864,-0.0277125,0,11467,48.612,26.982,13116.5
204265678,0.634769,2.223,88.3521,0.00718944,0.0012091,0.988896,0.152841,0.401859,0.0707191,-0.060486,-0.295814,-0.197091,0.496179,-0.031771,0,11467,48.612,26.982,13116.5
204365956,0.634769,2.223,88.3599,0.00846066,-0.0024914,0.988618,0.170993,0.372988,0.0622161,0.0376486,-0.269972,-0.0694019,0.489644,-0.0340613,0,11467,48.612,26.982,13116.5
204466296,0.634769,2.223,88.3478,0.00932807,-0.00548657,0.98869,0.185171,0.348135,0.0626302,0.00582383,-0.250984,0.13038,0.48121,-0.0353551,0,11467,48.612,26.982,13116.5
204566646,0.634769,2.223,88.3517,0.00990722,-0.0088647,0.988493,0.203041,0.325237,0.0601268,0.0343734,-0.294293,-0.0111524,0.473452,-0.0356032,0,11467,48.58,27.743,13477.5
204667039,0.634769,2.223,88.3614,0.0113999,-0.0109482,0.988816,0.21972,0.309967,0.0547992,0.110527,-0.200394,0.248912,0.466272,-0.0327376,0,11467,48.58,27.743,13477.5
204767436,0.634769,2.223,88.37,0.0118588,-0.0136388,0.989126,0.250098,0.289631,0.0638773,0.127684,-0.32983,-0.00990543,0.458535,-0.0304639,0,11467,48.58,27.743,13477.5
204867839,0.634769,2.223,88.3725,0.0174296,-0.0140579,0.98957,0.275852,0.270071,0.0559812,0.0962541,-0.311916,-0.142742,0.449986,-0.0243316,0,11467,48.58,27.743,13477.5
204968339,0.634769,2.223,88.4042,0.0241434,-0.01232,0.990373,0.303664,0.262963,0.0555993,0.209006,-0.221734,-0.330547,0.44111,-0.0171547,0,11467,48.58,27.743,13477.5
205068714,0.634769,2.223,88.4284,0.0298786,-0.00732572,0.990891,0.317445,0.249511,0.0351967,0.0121153,-0.103824,-0.26753,0.431069,-0.0100472,0,11467,48.58,27.743,13477.5
205169080,0.634769,2.223,88.4227,0.0355764,-0.00372132,0.991551,0.332338,0.228632,0.0286999,0.0206647,-0.147078,0.00389706,0.420898,-0.000258178,0,11467,48.58,27.743,13477.5
205269453,0.634769,2.223,88.4247,0.0403007,0.00113628,0.991703,0.328584,0.216418,0.0235798,-0.0356784,0.0298068,0.0540606,0.410697,0.0091571,0,11467,48.58,27.743,13477.5
205369913,0.634769,2.223,88.3947,0.0447502,0.004745,0.991948,0.331821,0.206884,0.0233508,-0.0123095,0.0128029,0.388012,-3,-0.7,0,11467,48.58,27.743,13477.5
205470318,0.634769,2.223,88.3915,0.0416203,0.0147863,0.992078,0.323083,0.190295,0.0230682,-0.112195,0.0639227,0.051481,-3,-0.7,0,11467,48.58,27.743,13477.5
205570678,0.634769,2.223,88.3892,0.0351868,0.0352389,0.992248,0.312236,0.162683,0.0306453,-0.311194,0.00145424,0.177263,-3,-0.7,0,11423,48.562,27.701,13452.2
