timestamp,lat,log,alt,roll,pitch,yaw,vel_x,vel_y,vel_z,acc_x,acc_y,acc_z,act_vx,act_vy,act_yr,capacity,vol,cur,power
4673550689,0.634768,2.223,125.795,-0.0611576,0.0186035,0.97135,-0.0230427,0.0944729,-0.0091134,0.0358252,0.0100495,0.485145,0,-4.1,0,12743,49.914,22.842,11401.4
4673651219,0.634768,2.223,125.792,-0.0618765,0.0154889,0.971485,-0.0181239,0.0860892,-0.00381266,0.0171029,-0.063494,0.103955,0,-4.1,0,12743,49.914,22.842,11401.4
4673751602,0.634768,2.223,125.794,-0.0723888,0.0104588,0.972978,-0.0169506,0.0875426,0.00244636,0.0992747,-0.0934772,-0.279581,0,-4.1,0,12743,49.914,22.842,11401.4
4673852047,0.634768,2.223,125.806,-0.167092,0.00498345,0.971962,0.0102995,0.0828349,0.0153314,0.233892,-0.491879,-0.238113,0,-4.1,0,12743,49.872,23.112,11526.4
4673952382,0.634768,2.223,125.816,-0.299793,0.00192651,0.971606,0.136813,0.0132387,-0.0530401,0.0939552,-1.68195,-0.242378,0,-4.1,0,12743,49.872,23.112,11526.4
4674052721,0.634768,2.223,125.825,-0.378516,0.00145467,0.971651,0.362535,-0.150262,-0.0517742,0.0418999,-2.63684,1.25561,0,-4.1,0,12743,49.872,23.112,11526.4
4674153122,0.634768,2.223,125.824,-0.422709,0.00559834,0.971055,0.677111,-0.339565,-0.042665,0.268433,-3.38433,1.43953,0,-4.1,0,12743,49.872,23.112,11526.4
4674253468,0.634768,2.223,125.82,-0.436397,0.0124215,0.968424,1.00348,-0.558749,-0.0453645,0.122101,-3.53593,1.52469,0,-4.1,0,12743,49.872,23.112,11526.4
4674353844,0.634768,2.223,125.799,-0.439899,0.0178462,0.966225,1.35034,-0.775158,-0.0314595,0.136679,-3.54851,1.77112,0,-4.1,0,12743,49.872,23.112,11526.4
4674454271,0.634768,2.223,125.779,-0.436286,0.0219393,0.965309,1.66545,-1.00021,-0.023885,0.0473785,-3.41611,1.55241,0,-4.1,0,12743,49.872,23.112,11526.4
4674554664,0.634768,2.223,125.779,-0.43133,0.0247609,0.963983,1.96661,-1.2258,-0.0557004,-0.211677,-3.33419,1.34553,0,-4.1,0,12743,49.872,23.112,11526.4
4674655033,0.634768,2.223,125.778,-0.400148,0.0247831,0.964929,2.26482,-1.47669,-0.0283051,-0.146249,-3.3724,1.70187,0,-4.1,0,12743,49.872,23.112,11526.4
4674755377,0.634768,2.223,125.78,-0.349376,0.0251165,0.964656,2.53665,-1.66003,-0.00396047,0.0364329,-2.73214,1.36532,0,-4.1,0,12743,49.872,23.112,11526.4
4674855680,0.634768,2.223,125.783,-0.306715,0.0229334,0.966103,2.74038,-1.84472,0.0208808,-0.152841,-2.2757,1.0237,0,-4.1,0,12743,49.917,23.476,11718.5
4674956093,0.634769,2.223,125.788,-0.266985,0.0197986,0.967011,2.91086,-1.97454,0.034105,-0.0974989,-1.80349,0.69182,0,-4.1,0,12743,49.917,23.476,11718.5
4675058878,0.634769,2.223,125.799,-0.235963,0.019041,0.967576,3.04984,-2.07734,0.0255942,-0.0694847,-1.50393,0.177542,0,-4.1,0,12743,49.917,23.476,11718.5
4675159251,0.634769,2.223,125.816,-0.210473,0.0178849,0.967833,3.14648,-2.16982,0.0253652,-0.236973,-1.15876,0.0498431,0,-4.1,0,12743,49.917,23.476,11718.5
4675259597,0.634769,2.223,125.833,-0.190528,0.0132875,0.968616,3.23399,-2.24478,0.00632073,-0.0466467,-1.03401,0.0816337,0,-4.1,0,12743,49.917,23.476,11718.5
4675359954,0.634769,2.223,125.855,-0.172502,0.011761,0.969184,3.31281,-2.29087,0.0178017,0.121037,-0.865179,-0.353734,0,-4.1,0,12743,49.917,23.476,11718.5
4675460353,0.634769,2.223,125.881,-0.157936,0.0122316,0.969162,3.378,-2.31586,-0.00657114,0.197253,-0.612387,0.224282,0,-4.1,0,12743,49.917,23.476,11718.5
4675560732,0.634769,2.223,125.887,-0.148065,0.0118133,0.969259,3.42523,-2.3343,-0.0261881,0.0674913,-0.548305,-0.499654,0,-2.9,0,12743,49.917,23.476,11718.5
4675661106,0.634769,2.223,125.891,-0.124229,0.0109035,0.967732,3.4623,-2.35124,-0.0309173,0.175691,-0.461629,-0.309701,0,-2.9,0,12743,49.917,23.476,11718.5
4675761466,0.634769,2.223,125.889,-0.0440578,0.0142607,0.968563,3.49925,-2.36077,-0.00248369,0.0264151,-0.134781,-0.0349557,0,-2.9,0,12743,49.917,23.476,11718.5
4675861836,0.634769,2.223,125.9,0.0336687,0.0202172,0.9702,3.43949,-2.29995,-0.00599677,0.00483827,0.906859,-1.26168,0,-2.9,0,12743,49.917,23.476,11718.5
4675962159,0.634769,2.223,125.902,0.0697362,0.0224325,0.969686,3.30348,-2.20669,-0.0334174,-0.081195,1.60224,0.182127,0,-2.9,0,12743,49.785,23.4,11649.7
4676062511,0.634769,2.223,125.895,0.0722133,0.0272938,0.969481,3.1688,-2.09377,-0.0332226,0.0533284,1.66594,-0.084493,0,-2.9,0,12743,49.785,23.4,11649.7
4676162898,0.634769,2.223,125.895,0.0588038,0.0290051,0.968954,3.04007,-2.00139,-0.0622591,0.00873509,1.44324,-0.118523,0,-2.9,0,12743,49.785,23.4,11649.7
4676263161,0.634769,2.223,125.894,0.0344103,0.0269355,0.967688,2.91134,-1.92407,-0.0686357,-0.0856448,1.29529,0.0212101,0,-2.9,0,12743,49.785,23.4,11649.7
4676363429,0.634769,2.223,125.886,0.0115909,0.0237297,0.967933,2.806,-1.8725,-0.081271,-0.211087,1.02017,-0.447201,0,-2.9,0,12743,49.785,23.4,11649.7
4676463785,0.634769,2.223,125.878,-0.010028,0.018674,0.967745,2.70987,-1.8162,-0.0883892,-0.0928427,0.942142,0.119013,0,-2.9,0,12743,49.785,23.4,11649.7
4676564123,0.634769,2.223,125.883,-0.0270175,0.0125146,0.968158,2.62979,-1.77216,-0.0707833,-0.0230329,0.681807,0.0170234,0,-2.9,0,12743,49.785,23.4,11649.7
4676664485,0.634769,2.223,125.892,-0.0446909,0.00976943,0.968179,2.57237,-1.72419,-0.0582266,0.117866,0.490095,0.294109,0,-2.9,0,12743,49.785,23.4,11649.7
4676764824,0.634769,2.223,125.897,-0.0589164,0.0113611,0.96882,2.53897,-1.69648,-0.0501989,0.0500888,0.25689,0.420241,0,-2.9,0,12743,49.785,23.4,11649.7
4676866192,0.634769,2.223,125.91,-0.0671841,0.0167551,0.968836,2.50624,-1.67681,-0.0506842,-0.0196382,0.24284,-0.492634,0,-2.9,0,12743,49.785,23.4,11649.7
4676972575,0.634769,2.223,125.926,-0.0750706,0.0189721,0.968577,2.48212,-1.66137,-0.0498622,-0.0462632,0.0901335,0.218381,0,-2.9,0,12713,49.679,27.843,13832.1
4677072919,0.63477,2.223,125.937,-0.083041,0.0177682,0.969013,2.45999,-1.66264,-0.0469922,-0.151566,0.0727477,-0.152723,0,-2.9,0,12713,49.679,27.843,13832.1
4677173304,0.63477,2.223,125.939,-0.090179,0.01611,0.969151,2.44982,-1.67347,-0.0438666,-0.0563017,-0.261131,-1.20196,0,-2.9,0,12713,49.679,27.843,13832.1
4677273695,0.63477,2.223,125.947,-0.0901927,0.0175674,0.969266,2.46401,-1.66533,-0.0637052,0.0636114,-0.0594678,0.242725,0,-2.9,0,12713,49.679,27.843,13832.1
4677374014,0.63477,2.223,125.947,-0.089397,0.0169762,0.969579,2.45977,-1.67203,-0.0435699,0.0506527,-0.0297749,-0.107163,0,-2.9,0,12713,49.679,27.843,13832.1
4677474381,0.63477,2.223,125.949,-0.0914179,0.0189632,0.969157,2.46487,-1.66487,-0.0869226,0.118366,-0.0257085,0.121168,0,-2.9,0,12713,49.679,27.843,13832.1
4677574787,0.63477,2.223,125.942,-0.0918883,0.0190387,0.969058,2.47317,-1.66571,-0.0663426,0.0142778,-0.0883062,-0.184496,0,2.1,0,12713,49.679,27.843,13832.1
4677675128,0.63477,2.223,125.936,-0.062172,0.0175812,0.966385,2.47232,-1.67154,-0.0690122,-0.0838226,0.00934012,0.662642,0,2.1,0,12713,49.679,27.843,13832.1
4677775400,0.63477,2.223,125.929,0.162851,0.0115608,0.971224,2.43617,-1.63647,0.0251835,0.156683,0.848829,0.550474,0,2.1,0,12713,49.679,27.843,13832.1
4677875742,0.63477,2.223,125.941,0.329832,0.0177794,0.974626,2.19736,-1.45044,-0.00356493,0.112639,3.36806,-0.26582,0,2.1,0,12713,49.679,27.843,13832.1
4677976115,0.63477,2.223,125.956,0.421699,0.0256696,0.977642,1.84035,-1.19749,-0.0822845,0.0329057,4.28124,1.48072,0,2.1,0,12669,49.873,24.511,12224.4
4678076485,0.63477,2.223,125.958,0.471642,0.0345499,0.981413,1.39946,-0.900927,-0.116006,-0.0740463,5.02918,1.69075,0,2.1,0,12669,49.873,24.511,12224.4
4678176803,0.63477,2.223,125.946,0.493452,0.0359566,0.981246,0.904498,-0.606524,-0.18249,-0.36488,5.06923,2.73792,0,2.1,0,12669,49.873,24.511,12224.4
4678277092,0.63477,2.223,125.921,0.492606,0.0278713,0.976162,0.402773,-0.282729,-0.184295,-0.186901,5.22459,2.80056,0,2.1,0,12669,49.873,24.511,12224.4
4678377450,0.63477,2.223,125.885,0.458131,0.00637595,0.964337,-0.0786957,0.085359,-0.197134,0.24086,5.29287,2.28307,0,2.1,0,12669,49.873,24.511,12224.4
4678477792,0.63477,2.223,125.848,0.379557,-0.0117244,0.956864,-0.511151,0.451811,-0.162764,0.434728,4.84594,2.5612,0,2.1,0,12669,49.873,24.511,12224.4
4678578140,0.63477,2.223,125.827,0.274568,-0.00832851,0.959954,-0.84199,0.751702,-0.129692,0.458254,3.67739,1.34678,0,2.1,0,12669,49.873,24.511,12224.4
4678678537,0.63477,2.223,125.809,0.186483,0.0100646,0.966516,-1.06472,1.00184,-0.0329318,0.725479,2.9684,0.150992,0,2.1,0,12669,49.873,24.511,12224.4
4678778933,0.63477,2.223,125.807,0.121869,0.0314427,0.970651,-1.23488,1.12807,-0.0453905,0.0509559,1.80347,0.875919,0,2.1,0,12669,49.873,24.511,12224.4
4678879292,0.63477,2.223,125.8,0.0748119,0.0424399,0.972486,-1.39553,1.20788,0.0336497,-0.15982,1.31623,1.33641,0,2.1,0,12669,49.873,24.511,12224.4
4678979589,0.63477,2.223,125.822,0.0405934,0.0458405,0.973306,-1.49143,1.24577,0.0325654,-0.315485,0.796602,-0.798231,0,2.1,0,12669,49.934,21.889,10930.1
4679079933,0.63477,2.223,125.849,0.0209472,0.0476771,0.973678,-1.56433,1.27509,0.00701809,-0.16803,0.616714,-0.131973,0,2.1,0,12669,49.934,21.889,10930.1
4679181936,0.63477,2.223,125.855,0.00807887,0.0503097,0.973463,-1.6324,1.29367,0.00322556,-0.271677,0.524349,-0.225875,0,2.1,0,12669,49.934,21.889,10930.1
4679288119,0.63477,2.223,125.883,0.000250964,0.0483496,0.973224,-1.67201,1.29494,0.00833038,-0.210617,0.267488,-0.391135,0,2.1,0,12669,49.934,21.889,10930.1
4679388456,0.63477,2.223,125.893,-0.00276205,0.0444141,0.973527,-1.70543,1.29384,0.00321503,-0.211056,0.326626,-0.238294,0,2.1,0,12669,49.934,21.889,10930.1
4679488750,0.63477,2.223,125.901,-0.00561199,0.0371939,0.973179,-1.72922,1.29121,-0.0120311,-0.126523,0.252391,-0.302886,0,2.1,0,12669,49.934,21.889,10930.1
4679589163,0.63477,2.223,125.912,-0.00561937,0.0316371,0.973288,-1.7383,1.27448,-0.0191492,-0.144149,0.0715252,-0.210066,0,-2.3,0,12669,49.934,21.889,10930.1
4679689545,0.63477,2.223,125.904,-0.018278,0.0285539,0.974612,-1.75705,1.28641,-0.0275386,0.0431345,0.402732,0.037741,0,-2.3,0,12669,49.934,21.889,10930.1
4679789910,0.63477,2.223,125.897,-0.170522,0.0220653,0.970934,-1.72385,1.26546,0.0128327,0.0944003,-0.714553,-1.06928,0,-2.3,0,12669,49.934,21.889,10930.1
4679890248,0.634769,2.223,125.883,-0.329979,0.0135374,0.970247,-1.5257,1.14839,-0.0774422,0.163463,-2.42081,0.0689536,0,-2.3,0,12669,49.934,21.889,10930.1
4679990615,0.634769,2.223,125.859,-0.426475,0.0124076,0.970837,-1.20247,0.935369,-0.114289,0.0709089,-3.73825,0.999957,0,-2.3,0,12669,49.858,25.54,12733.7
4680090939,0.634769,2.223,125.831,-0.472968,0.0114262,0.971416,-0.795201,0.662503,-0.0950379,0.231063,-3.90098,2.77282,0,-2.3,0,12669,49.858,25.54,12733.7
4680191296,0.634769,2.223,125.809,-0.483446,0.0163853,0.970052,-0.366576,0.378173,-0.0670908,0.175905,-3.90711,3.01966,0,-2.3,0,12669,49.858,25.54,12733.7
4680291655,0.634769,2.223,125.788,-0.476874,0.0236863,0.966869,0.0485599,0.0799873,-0.0502417,-0.0779306,-4.12699,2.33311,0,-2.3,0,12669,49.858,25.54,12733.7
4680392048,0.634769,2.223,125.769,-0.456598,0.0281909,0.965489,0.456681,-0.190996,-0.0281704,0.108056,-4.27379,1.85727,0,-2.3,0,12669,49.858,25.54,12733.7
4680492416,0.63477,2.223,125.772,-0.395697,0.0279083,0.966898,0.827513,-0.432625,-0.0142926,0.232358,-3.41808,2.19035,0,-2.3,0,12669,49.858,25.54,12733.7
4680592750,0.63477,2.223,125.783,-0.333691,0.0293973,0.967383,1.11989,-0.629086,0.0133392,0.101048,-2.95385,1.11388,0,-2.3,0,12669,49.858,25.54,12733.7
4680693075,0.63477,2.223,125.789,-0.273493,0.0303513,0.967778,1.36462,-0.789053,0.00280138,0.280792,-2.50145,0.777493,0,-2.3,0,12669,49.858,25.54,12733.7
4680793433,0.63477,2.223,125.794,-0.220547,0.0311655,0.967607,1.54171,-0.910409,0.0067008,-0.0245275,-1.65691,0.670823,0,-2.3,0,12669,49.858,25.54,12733.7
4680893775,0.63477,2.223,125.814,-0.176803,0.0328893,0.967874,1.6753,-1.00582,0.0289639,0.026553,-1.30892,0.104476,0,-2.3,0,12669,49.858,25.54,12733.7
4680994122,0.63477,2.223,125.837,-0.144211,0.0368845,0.967331,1.76871,-1.08439,0.0254759,-0.046381,-0.916535,-0.0584119,0,-2.3,0,12669,49.858,25.54,12733.7
4681094461,0.63477,2.223,125.848,-0.120904,0.0350899,0.967398,1.82433,-1.13987,0.0103725,-0.0546042,-0.598891,-0.0973447,0,-2.3,0,12669,49.858,24.731,12330.4
4681194793,0.63477,2.223,125.853,-0.106057,0.0332856,0.967972,1.87005,-1.1774,0.00639662,0.0470435,-0.422441,-0.272959,0,-2.3,0,12669,49.858,24.731,12330.4
4681295070,0.63477,2.223,125.852,-0.0998573,0.0309266,0.968131,1.9034,-1.20279,-0.0336209,0.172543,-0.274117,0.532742,0,-2.3,0,12669,49.858,24.731,12330.4
4681395413,0.63477,2.223,125.846,-0.0926964,0.0304242,0.968353,1.92693,-1.21669,-0.0181528,0.104286,-0.163214,-0.250064,0,-2.3,0,12669,49.858,24.731,12330.4
4681495778,0.63477,2.223,125.844,-0.0896166,0.0305959,0.968363,1.93725,-1.23274,-0.0456144,-0.0483518,-0.229293,-0.589128,0,-2.3,0,12669,49.858,24.731,12330.4
4681596252,0.63477,2.223,125.838,-0.0864996,0.0266509,0.968472,1.94134,-1.25169,-0.0318172,0.0362707,-0.170389,0.223797,0,0.9,0,12669,49.858,24.731,12330.4
4681696620,0.63477,2.223,125.83,-0.0441123,0.0276165,0.965583,1.96152,-1.25983,-0.0249247,0.132209,-0.297395,0.771923,0,0.9,0,12669,49.858,24.731,12330.4
4681797001,0.63477,2.223,125.835,0.176819,0.0277568,0.972432,1.91625,-1.24219,0.0588407,-0.11723,0.935814,-0.0353323,0,0.9,0,12669,49.858,24.731,12330.4
4681898684,0.63477,2.223,125.845,0.335764,0.0259003,0.974079,1.64428,-1.07562,0.00736663,0.00724107,3.29818,0.0232808,0,0.9,0,12669,49.858,24.731,12330.4
4682001707,0.63477,2.223,125.837,0.425156,0.0282209,0.974947,1.28924,-0.8262,-0.074358,0.11739,4.12755,1.47397,0,0.9,0,12669,49.858,24.731,12330.4
4682102014,0.63477,2.223,125.835,0.427076,0.0289673,0.973202,0.828609,-0.517363,-0.0935131,0.0221639,4.7695,2.44601,0,0.9,0,12669,49.767,24.731,12307.9
4682202374,0.63477,2.223,125.827,0.365338,0.0254558,0.971041,0.380857,-0.2251,-0.092471,-0.0840262,4.6528,1.80458,0,0.9,0,12669,49.767,24.731,12307.9
4682302729,0.63477,2.223,125.807,0.271313,0.0173871,0.968175,0.0343156,0.025919,-0.0826552,0.268028,3.58404,1.26348,0,0.9,0,12669,49.767,24.731,12307.9
4682403083,0.63477,2.223,125.787,0.179763,0.0213245,0.969633,-0.232016,0.213477,-0.0631906,-0.063539,2.58784,1.75783,0,0.9,0,12669,49.767,24.731,12307.9
4682503410,0.63477,2.223,125.792,0.113066,0.0190831,0.970704,-0.442338,0.326239,-0.0411355,-0.075022,1.96399,0.395495,0,0.9,0,12669,49.767,24.731,12307.9
4682603779,0.63477,2.223,125.806,0.0614123,0.0193804,0.97162,-0.581116,0.416983,-0.0189118,-0.00166137,1.28772,-0.236784,0,0.9,0,12669,49.767,24.731,12307.9
4682704129,0.63477,2.223,125.812,0.0225043,0.0238309,0.971371,-0.665815,0.481916,-0.015842,0.0557075,0.787137,-0.00531588,0,0.9,0,12669,49.767,24.731,12307.9
4682804485,0.63477,2.223,125.814,-0.00172613,0.0266196,0.971115,-0.727785,0.519229,-0.00657152,-0.0436664,0.462054,-0.922188,0,0.9,0,12669,49.767,24.731,12307.9
4682904843,0.63477,2.223,125.817,-0.0170673,0.028939,0.970897,-0.770126,0.537343,-0.0109364,-0.107877,0.267424,0.119552,0,0.9,0,12669,49.767,24.731,12307.9
4683005221,0.63477,2.223,125.83,-0.0281759,0.0284635,0.970677,-0.800135,0.545588,-0.0110497,-0.0929576,0.0902719,-0.0740812,0,0.9,0,12669,49.767,24.731,12307.9
4683105593,0.63477,2.223,125.826,-0.0315578,0.0281772,0.97055,-0.828309,0.551687,-0.0161651,-0.105965,0.17193,-0.082599,0,0.9,0,12669,49.695,27.415,13623.9
4683205956,0.63477,2.223,125.811,-0.0333191,0.0282061,0.970771,-0.840521,0.562211,-0.0263455,-0.0387539,0.0625537,-0.0923016,0,0.9,0,12669,49.695,27.415,13623.9
4683306313,0.63477,2.223,125.799,-0.0327779,0.0279061,0.970499,-0.851297,0.56815,-0.0241285,0.0500647,0.114747,0.153272,0,0.9,0,12669,49.695,27.415,13623.9
4683406613,0.63477,2.223,125.791,-0.0331565,0.0281857,0.970549,-0.847791,0.572307,-0.0162471,-0.0172153,-0.00527281,-0.54141,0,0.9,0,12669,49.695,27.415,13623.9
4683506975,0.63477,2.223,125.775,-0.0298152,0.0256229,0.970674,-0.84509,0.565768,-0.0225227,-0.0116729,-0.0324707,0.186429,0,0.9,0,12669,49.695,27.415,13623.9
4683607362,0.63477,2.223,125.766,-0.0273145,0.0233054,0.970728,-0.848998,0.569268,-0.0115815,0.0220806,0.133728,0.226735,0,1.5,0,12669,49.695,27.415,13623.9
4683707718,0.63477,2.223,125.77,-0.0133141,0.0225832,0.97009,-0.854117,0.563643,0.0181912,-0.0749537,0.0417932,0.246749,0,1.5,0,12669,49.695,27.415,13623.9
4683808108,0.63477,2.223,125.776,0.0406542,0.0205191,0.971421,-0.887477,0.589859,0.0302496,-0.00860867,0.682112,-0.372557,0,1.5,0,12669,49.695,27.415,13623.9
4683908494,0.63477,2.223,125.779,0.0722807,0.0227143,0.972061,-0.970897,0.637371,-0.00414876,-0.111874,1.08764,-0.344543,0,1.5,0,12669,49.695,27.415,13623.9
4684008857,0.63477,2.223,125.784,0.0795059,0.0206033,0.971437,-1.06946,0.697853,-0.0061594,0.0157837,1.20803,0.250426,0,1.5,0,12669,49.695,27.415,13623.9
4684109229,0.63477,2.223,125.782,0.0732799,0.0183454,0.971242,-1.15669,0.764567,-0.014235,0.074155,1.20964,-0.354213,0,1.5,0,12669,49.723,27.235,13542.1
4684209600,0.63477,2.223,125.777,0.0577393,0.0152681,0.970613,-1.23851,0.822388,-0.000102291,0.0175299,1.06746,0.282775,0,1.5,0,12669,49.723,27.235,13542.1
4684309936,0.63477,2.223,125.771,0.0392378,0.0158793,0.971009,-1.29871,0.871163,-0.00709617,0.0615862,0.805199,-0.111912,0,1.5,0,12669,49.723,27.235,13542.1
4684410294,0.63477,2.223,125.763,0.0238885,0.0176193,0.971086,-1.33704,0.908547,-0.020061,0.0765548,0.579671,0.0621667,0,1.5,0,12669,49.723,27.235,13542.1
4684511451,0.63477,2.223,125.759,0.0128929,0.0177828,0.971336,-1.3738,0.929338,-0.00571503,-0.00136217,0.483381,-0.00830799,0,1.5,0,12669,49.723,27.235,13542.1
4684611853,0.63477,2.223,125.738,0.00331516,0.0172927,0.971086,-1.3955,0.970026,-0.0297709,0.239659,0.416137,0.597231,0,1.5,0,12669,49.723,27.235,13542.1
4684712234,0.63477,2.223,125.723,-0.00409167,0.0206112,0.97099,-1.41461,0.996427,-0.00405655,0.111069,0.313287,0.0989564,0,1.5,0,12669,49.723,27.235,13542.1
4684812584,0.63477,2.223,125.717,-0.00881428,0.0223507,0.970726,-1.43484,1.01189,0.00347861,0.0683857,0.235877,0.0792753,0,1.5,0,12669,49.723,27.235,13542.1
4684912934,0.63477,2.223,125.705,-0.0134762,0.0229584,0.970709,-1.42985,1.03107,0.0038151,0.261796,0.0323437,0.520244,0,1.5,0,12669,49.723,27.235,13542.1
4685013273,0.634769,2.223,125.705,-0.0159512,0.0268623,0.970831,-1.42034,1.05238,0.0270859,0.290651,0.00405416,-0.130715,0,1.5,0,12669,49.723,27.235,13542.1
4685113619,0.634769,2.223,125.717,-0.0182912,0.0307629,0.970993,-1.42659,1.06045,0.0184341,0.0801749,0.0722253,-0.0736541,0,1.5,0,12669,49.723,27.235,13542.1
4685213984,0.634769,2.223,125.723,-0.0214087,0.0300662,0.971089,-1.44552,1.06356,0.0179456,-0.0107722,0.186772,-0.050476,0,1.5,0,12669,49.723,27.235,13542.1
4685314344,0.634769,2.223,125.72,-0.0236923,0.0303587,0.970972,-1.44709,1.07602,0.0225917,0.0885934,0.13777,0.0225036,0,1.5,0,12669,49.723,27.235,13542.1
4685414695,0.634769,2.223,125.718,-0.0268078,0.0309086,0.970911,-1.4531,1.08041,0.0302293,0.00891865,0.0531007,0.0371693,0,1.5,0,12669,49.723,27.235,13542.1
4685515059,0.634769,2.223,125.714,-0.0287119,0.0297594,0.970618,-1.44481,1.0824,0.0309029,0.118142,-0.022434,0.013985,0,1.5,0,12669,49.723,27.235,13542.1
4685615457,0.634769,2.223,125.712,-0.0293466,0.0300253,0.970735,-1.44674,1.09009,0.0381125,0.0722266,0.0842926,-0.111149,0,2.6,0,12654,49.683,25.974,12904.7
4685715788,0.634769,2.223,125.722,-0.00313869,0.0294094,0.969255,-1.42938,1.1016,0.0241307,0.241072,-0.0816192,0.388439,0,2.6,0,12654,49.683,25.974,12904.7
4685816135,0.634769,2.223,125.733,0.0695045,0.032521,0.972389,-1.45636,1.12546,0.0475847,0.0704731,0.46344,-0.110972,0,2.6,0,12654,49.683,25.974,12904.7
4685920744,0.634769,2.223,125.742,0.128655,0.0351141,0.973249,-1.54931,1.19157,0.0367739,0.034901,1.23006,-0.203647,0,2.6,0,12654,49.683,25.974,12904.7
4686023457,0.634769,2.223,125.747,0.149559,0.0361093,0.973074,-1.69693,1.27611,0.0157786,-0.0422996,1.70892,0.22989,0,2.6,0,12654,49.683,25.974,12904.7
4686123777,0.634769,2.223,125.761,0.141296,0.0366042,0.972507,-1.84196,1.37677,0.0386904,0.0533045,1.74601,0.278075,0,2.6,0,12654,49.683,25.974,12904.7
4686224150,0.634769,2.223,125.769,0.117485,0.037101,0.972038,-1.9775,1.46703,0.0237815,0.0383751,1.60865,-0.200793,0,2.6,0,12654,49.683,25.974,12904.7
4686324518,0.634769,2.223,125.771,0.0884343,0.0377701,0.971572,-2.09688,1.53875,0.0165589,-0.0710466,1.35188,-0.0934797,0,2.6,0,12654,49.683,25.974,12904.7
4686424878,0.634769,2.223,125.771,0.0628055,0.0363277,0.971277,-2.20117,1.5855,0.0149762,-0.120945,1.08129,0.0638619,0,2.6,0,12654,49.683,25.974,12904.7
4686526125,0.634769,2.223,125.781,0.0394241,0.0348629,0.971195,-2.28044,1.61592,0.0113906,-0.127556,0.733213,0.0317466,0,2.6,0,12654,49.683,25.974,12904.7
4686631363,0.634769,2.223,125.787,0.0203803,0.0336868,0.97083,-2.33776,1.66164,0.00843606,0.0641921,0.527687,-0.057748,0,2.6,0,12654,49.697,24.739,12294.5
4686731705,0.634769,2.223,125.793,0.00747084,0.033851,0.970969,-2.36246,1.68134,-0.0035785,0.0859286,0.257002,-0.179306,0,2.6,0,12654,49.697,24.739,12294.5
4686832079,0.634769,2.223,125.793,-0.00113076,0.0348905,0.970764,-2.40634,1.69013,-0.00275473,-0.102423,0.339324,0.18298,0,2.6,0,12654,49.697,24.739,12294.5
4686932427,0.634769,2.223,125.785,-0.00911034,0.0325285,0.970412,-2.4336,1.69177,0.00481341,-0.038913,0.181484,0.118428,0,2.6,0,12654,49.697,24.739,12294.5
4687032789,0.634769,2.223,125.777,-0.0123988,0.0303478,0.970235,-2.44724,1.69479,-0.0111997,-0.00148193,0.0887047,-0.227682,0,2.6,0,12654,49.697,24.739,12294.5
4687133224,0.634769,2.223,125.777,-0.0138796,0.0281493,0.970297,-2.45918,1.68905,-0.0127129,-0.139689,0.046299,-0.0997279,0,2.6,0,12654,49.697,24.739,12294.5
4687234327,0.634769,2.223,125.779,-0.0151591,0.0252852,0.969997,-2.48679,1.70142,-0.00675271,-0.0133625,0.216797,0.212168,0,2.6,0,12654,49.697,24.739,12294.5
4687335329,0.634769,2.223,125.778,-0.0182546,0.0235954,0.969893,-2.49507,1.70061,0.0131882,0.00788911,0.047223,-0.091654,0,2.6,0,12654,49.697,24.739,12294.5
4687435680,0.634769,2.223,125.774,-0.0206611,0.0235236,0.96966,-2.49022,1.70502,0.000262032,0.0936791,-0.0310586,-0.0168717,0,2.6,0,12654,49.697,24.739,12294.5
4687536133,0.634769,2.223,125.782,-0.0213704,0.0248666,0.96961,-2.50156,1.70185,0.0012694,-0.0502871,0.0876488,-0.0163768,0,2.6,0,12654,49.697,24.739,12294.5
4687639762,0.634769,2.223,125.784,-0.0222275,0.0242027,0.969775,-2.50484,1.69812,0.00853968,-0.0171459,0.0643323,0.689925,0,-1.4,0,12654,49.671,24.971,12403.3
4687746309,0.634769,2.223,125.78,-0.0392707,0.0224884,0.971018,-2.49921,1.69402,-0.000546142,0.0259978,-0.0159364,-0.132161,0,-1.4,0,12654,49.671,24.971,12403.3
4687846662,0.634769,2.223,125.772,-0.180625,0.0174605,0.967665,-2.47152,1.67635,0.0252833,0.0578892,-0.529069,0.146404,0,-1.4,0,12654,49.671,24.971,12403.3
4687947021,0.634769,2.223,125.772,-0.315462,0.0138384,0.966683,-2.30878,1.5632,-0.033783,0.00331226,-2.08317,0.0356734,0,-1.4,0,12654,49.671,24.971,12403.3
4688047415,0.634769,2.223,125.766,-0.402003,0.0121186,0.967219,-1.94909,1.33269,-0.0325223,0.113598,-3.35772,1.41762,0,-1.4,0,12654,49.671,24.971,12403.3
4688147791,0.634768,2.223,125.756,-0.442913,0.0120955,0.967528,-1.56949,1.10301,-0.0251977,0.235521,-3.84874,1.96976,0,-1.4,0,12654,49.671,24.971,12403.3
4688248189,0.634768,2.223,125.751,-0.454469,0.0141327,0.967207,-1.17959,0.84797,-0.0112018,0.18311,-4.01426,2.00752,0,-1.4,0,12654,49.671,24.971,12403.3
4688348566,0.634768,2.223,125.743,-0.448938,0.0182888,0.96657,-0.801917,0.610828,-0.000921966,0.144612,-3.8622,1.87403,0,-1.4,0,12654,49.671,24.971,12403.3
4688448952,0.634768,2.223,125.736,-0.435895,0.0242034,0.964897,-0.423434,0.377392,-0.00447964,0.308929,-3.86034,1.93161,0,-1.4,0,12654,49.671,24.971,12403.3
4688550585,0.634768,2.223,125.739,-0.385777,0.0291265,0.964557,-0.0877001,0.137202,0.0110162,0.0143467,-3.41249,1.97112,0,-1.4,0,12654,49.671,24.971,12403.3
4688651702,0.634768,2.223,125.743,-0.32967,0.0326647,0.964797,0.207292,-0.0530097,0.0282185,0.156351,-2.95201,0.987992,0,-1.4,0,12654,49.671,25.087,12461
4688752095,0.634768,2.223,125.747,-0.26794,0.0358551,0.965256,0.442138,-0.214812,0.036768,0.0956247,-2.52769,0.736817,0,-1.4,0,12654,49.668,25.087,12460.2
4688852428,0.634768,2.223,125.75,-0.222869,0.0384334,0.965532,0.620106,-0.33517,0.0381134,0.0101848,-1.69519,0.763338,0,-1.4,0,12654,49.668,25.087,12460.2
4688952747,0.634769,2.223,125.768,-0.181151,0.0371095,0.966649,0.758118,-0.430284,0.0346861,0.0369172,-1.40499,0.0424439,0,-1.4,0,12654,49.668,25.087,12460.2
4689053098,0.634769,2.223,125.784,-0.152303,0.035025,0.967447,0.853014,-0.505387,0.0254958,-0.0394766,-0.997342,0.126223,0,-1.4,0,12654,49.668,25.087,12460.2
4689153445,0.634769,2.223,125.787,-0.128608,0.0327764,0.967794,0.92934,-0.555937,0.0113842,-0.0145177,-0.68983,0.0985885,0,-1.4,0,12654,49.668,25.087,12460.2
4689253802,0.634769,2.223,125.797,-0.112613,0.0311644,0.9682,0.980118,-0.599422,0.0217201,-0.13906,-0.557883,-0.596144,0,-1.4,0,12654,49.668,25.087,12460.2
4689354073,0.634769,2.223,125.801,-0.103085,0.0292237,0.968128,1.01269,-0.623464,0.0265273,0.178845,-0.41905,0.426993,0,-1.4,0,12654,49.668,25.087,12460.2
4689454483,0.634769,2.223,125.8,-0.0985565,0.0310032,0.968142,1.04589,-0.637243,-0.00254455,0.126332,-0.330387,-0.145258,0,-1.4,0,12654,49.668,25.087,12460.2
4689554844,0.634769,2.223,125.804,-0.0927209,0.0302782,0.968521,1.07266,-0.656035,0.00363347,-0.0141763,-0.318737,0.192778,0,-1.4,0,12654,49.668,25.087,12460.2
4689655245,0.634769,2.223,125.801,-0.089085,0.0295301,0.968486,1.08259,-0.668688,0.000892481,-0.00733061,-0.218961,-0.236918,0,-4.7,0,12654,49.668,25.087,12460.2
4689755586,0.634769,2.223,125.799,-0.118119,0.0246057,0.969888,1.08206,-0.67308,0.00559751,0.0605031,0.0396077,0.499841,0,-4.7,0,12625,49.631,26.324,13064.9
4689855886,0.634769,2.223,125.795,-0.220123,0.0192108,0.966962,1.13686,-0.69938,-0.00181346,0.134799,-1.06473,-0.841779,0,-4.7,0,12625,49.631,26.324,13064.9
4689956288,0.634769,2.223,125.79,-0.316692,0.0171586,0.966944,1.2884,-0.774303,-0.0628106,0.125436,-1.88219,-0.00554842,0,-4.7,0,12625,49.631,26.324,13064.9
4690056642,0.634769,2.223,125.776,-0.377788,0.0157624,0.967424,1.48187,-0.92679,-0.0727719,0.0988328,-2.52497,1.3085,0,-4.7,0,12625,49.631,26.324,13064.9
4690157027,0.634769,2.223,125.758,-0.401942,0.015761,0.967391,1.74602,-1.10942,-0.0646624,0.0308955,-2.81909,1.63095,0,-4.7,0,12625,49.631,26.324,13064.9
4690257376,0.634769,2.223,125.747,-0.409533,0.0186317,0.967055,2.04188,-1.28503,-0.0316994,0.239753,-3.11647,1.53345,0,-4.7,0,12625,49.631,26.324,13064.9
4690357714,0.634769,2.223,125.735,-0.411325,0.0240655,0.965493,2.34004,-1.49376,-0.00497226,0.21627,-3.17914,1.82411,0,-4.7,0,12625,49.631,26.324,13064.9
4690458088,0.634769,2.223,125.723,-0.408087,0.0306736,0.964109,2.63999,-1.67206,0.0161531,0.17333,-3.32267,1.02009,0,-4.7,0,12625,49.631,26.324,13064.9
4690558465,0.634769,2.223,125.732,-0.377469,0.0339072,0.96359,2.8979,-1.88811,0.00973583,-0.254586,-3.15727,1.37294,0,-4.7,0,12625,49.631,26.324,13064.9
4690658825,0.634769,2.223,125.757,-0.33654,0.0336212,0.963821,3.11819,-2.09123,0.0277,-0.206701,-2.60463,1.24458,0,-4.7,0,12625,49.631,26.324,13064.9
4690759144,0.634769,2.223,125.766,-0.298876,0.0305906,0.964502,3.29099,-2.25312,0.0495116,-0.215119,-2.12738,0.85966,0,-4.7,0,12625,49.493,28.977,14341.6
4690859373,0.634769,2.223,125.78,-0.266326,0.0285915,0.965349,3.453,-2.37867,0.0626478,0.00746157,-1.73592,0.683591,0,-4.7,0,12625,49.493,28.977,14341.6
4690959679,0.634769,2.223,125.799,-0.239333,0.0278849,0.96565,3.5622,-2.46715,0.0443311,-0.204276,-1.31383,0.346604,0,-4.7,0,12625,49.493,28.977,14341.6
4691060070,0.634769,2.223,125.82,-0.217151,0.0262911,0.966177,3.67712,-2.54489,0.0369433,0.0916002,-1.30327,0.10719,0,-4.7,0,12625,49.493,28.977,14341.6
4691160409,0.634769,2.223,125.83,-0.195611,0.0280215,0.966451,3.78052,-2.59333,0.0369232,0.19849,-1.20125,-0.559876,0,-4.7,0,12625,49.493,28.977,14341.6
4691260775,0.634769,2.223,125.842,-0.176946,0.0304317,0.966749,3.85962,-2.63362,0.0318686,0.0797685,-0.799296,-0.200767,0,-4.7,0,12625,49.493,28.977,14341.6
4691361103,0.634769,2.223,125.85,-0.160716,0.0282683,0.967351,3.8882,-2.68533,-0.00242921,-0.151978,-0.571013,-0.169136,0,-4.7,0,12625,49.493,28.977,14341.6
4691461461,0.634769,2.223,125.859,-0.147545,0.0201831,0.968767,3.93294,-2.71657,0.0189497,0.0989437,-0.44483,0.701932,0,-4.7,0,12625,49.493,28.977,14341.6
4691561829,0.634769,2.223,125.865,-0.141242,0.0165949,0.969781,3.96964,-2.71395,-0.0016,0.150486,-0.392092,-0.696055,0,-4.7,0,12625,49.493,28.977,14341.6
4691662212,0.63477,2.223,125.865,-0.134047,0.0186886,0.969663,4.01004,-2.72004,-0.013561,0.234775,-0.34232,0.215688,0,4.1,0,12625,49.493,28.977,14341.6
4691762564,0.63477,2.223,125.858,-0.108652,0.0237259,0.966116,4.05844,-2.71126,-0.0256667,0.285235,-0.474929,-0.343629,0,4.1,0,12625,49.548,25.789,12777.9
4691862922,0.63477,2.223,125.847,0.11077,0.0184681,0.970517,4.05712,-2.71962,0.0472383,0.139584,0.0490036,1.63552,0,4.1,0,12625,49.548,25.789,12777.9
4691963256,0.63477,2.223,125.851,0.32414,0.0121035,0.971921,3.80263,-2.52746,0.164397,0.169705,3.17918,1.42362,0,4.1,0,12625,49.548,25.789,12777.9
4692063635,0.63477,2.223,125.862,0.423567,0.0151352,0.973271,3.4427,-2.26188,0.0727464,0.107098,4.62668,0.575587,0,4.1,0,12625,49.548,25.789,12777.9
4692164037,0.63477,2.223,125.874,0.453283,0.0173096,0.974539,3.02006,-1.96501,0.00563364,0.20077,4.2511,3.08405,0,4.1,0,12625,49.548,25.789,12777.9
4692264384,0.63477,2.223,125.872,0.459914,0.021891,0.976662,2.5802,-1.64388,-0.0373709,0.110455,5.18557,0.969277,0,4.1,0,12625,49.548,25.789,12777.9
4692364727,0.63477,2.223,125.868,0.464893,0.0173283,0.974062,2.16046,-1.34982,-0.120611,0.0876463,4.48857,2.37887,0,4.1,0,12625,49.548,25.789,12777.9
4692465062,0.63477,2.223,125.861,0.473941,0.00849017,0.970798,1.71191,-1.0421,-0.155281,-0.00195962,4.92578,1.81234,0,4.1,0,12625,49.548,25.789,12777.9
4692565395,0.63477,2.223,125.844,0.492869,0.0129113,0.971316,1.25823,-0.708931,-0.175398,0.112871,5.01283,2.17826,0,4.1,0,12625,49.548,25.789,12777.9
4692665756,0.63477,2.223,125.814,0.509462,0.022642,0.972538,0.778419,-0.360987,-0.207592,0.14724,4.87091,3.18226,0,4.1,0,12625,49.548,25.789,12777.9
4692766135,0.63477,2.223,125.781,0.512592,0.0278031,0.971606,0.214563,0.0164014,-0.18845,0.0216854,5.33806,3.61059,0,4.1,0,12625,49.548,25.789,12777.9
4692866466,0.63477,2.223,125.752,0.49723,0.0279719,0.97062,-0.336013,0.39149,-0.151813,-0.00398875,5.33961,3.27094,0,4.1,0,12580,49.47,28.711,14203.3
4692966833,0.63477,2.223,125.718,0.466589,0.029994,0.972606,-0.849254,0.748691,-0.169136,0.0809199,5.08669,2.87358,0,4.1,0,12580,49.47,28.711,14203.3
4693067154,0.63477,2.223,125.69,0.431698,0.0332743,0.974799,-1.44821,1.17572,-0.0773877,0.260281,4.74369,3.8208,0,4.1,0,12580,49.47,28.711,14203.3
4693167416,0.63477,2.223,125.691,0.370758,0.0393898,0.978202,-1.89756,1.47063,-0.0208416,-0.0672896,4.5511,1.84759,0,4.1,0,12580,49.47,28.711,14203.3
4693267725,0.63477,2.223,125.7,0.288462,0.0435987,0.979185,-2.26268,1.6832,0.0541619,-0.230743,3.50233,1.79877,0,4.1,0,12580,49.47,28.711,14203.3
4693368053,0.63477,2.223,125.721,0.21486,0.045116,0.978626,-2.49116,1.82223,0.0945065,-0.218397,2.97197,0.96643,0,4.1,0,12580,49.47,28.711,14203.3
4693468354,0.63477,2.223,125.744,0.151419,0.0435391,0.977347,-2.73499,1.94876,0.0751427,-0.272889,1.93108,0.371316,0,4.1,0,12580,49.47,28.711,14203.3
4693568741,0.63477,2.223,125.777,0.106147,0.0420435,0.976216,-2.86709,2.0184,0.0717095,-0.218684,1.33242,-0.519495,0,4.1,0,12580,49.47,28.711,14203.3
4693669126,0.63477,2.223,125.82,0.0805741,0.0401426,0.975219,-2.95294,2.06,0.0591824,-0.20768,0.895343,-0.257293,0,1,0,12580,49.47,28.711,14203.3
4693769425,0.63477,2.223,125.846,0.0427299,0.0357326,0.9753,-3.03195,2.10104,0.0490189,-0.16917,0.941245,0.106968,0,1,0,12580,49.47,28.711,14203.3
4693869780,0.634769,2.223,125.872,-0.170904,0.0315781,0.968004,-3.03717,2.09974,0.11068,-0.101138,-0.351018,-0.237537,0,1,0,12580,49.688,24.439,12143.3
4693970144,0.634769,2.223,125.89,-0.360502,0.0308078,0.964673,-2.83319,1.96106,0.000347979,-0.0718063,-2.94272,-0.785124,0,1,0,12580,49.688,24.439,12143.3
4694070514,0.634769,2.223,125.899,-0.436049,0.028345,0.964281,-2.48496,1.73039,-0.0600756,0.0516552,-3.686,1.74832,0,1,0,12580,49.688,24.439,12143.3
4694170885,0.634769,2.223,125.888,-0.421311,0.025106,0.965767,-2.10012,1.46897,-0.0544146,0.025521,-3.94277,1.55049,0,1,0,12580,49.688,24.439,12143.3
4694271233,0.634769,2.223,125.878,-0.353692,0.025996,0.966527,-1.75338,1.23414,-0.0389253,0.0270551,-3.59844,1.03662,0,1,0,12580,49.688,24.439,12143.3
4694371585,0.634769,2.223,125.851,-0.283305,0.0285189,0.966943,-1.47372,1.05265,-0.0374949,0.0529883,-2.77594,1.19591,0,1,0,12580,49.688,24.439,12143.3
4694471945,0.634769,2.223,125.825,-0.212814,0.0327028,0.967152,-1.2699,0.906313,-0.0311686,-0.0498469,-2.06932,0.400194,0,1,0,12580,49.688,24.439,12143.3
4694572363,0.634769,2.223,125.837,-0.159395,0.0331036,0.967906,-1.11103,0.786124,-0.021926,-0.0312717,-1.50172,0.361279,0,1,0,12580,49.688,24.439,12143.3
4694672702,0.634769,2.223,125.846,-0.113557,0.0296429,0.969439,-1.01325,0.685348,-0.0369226,-0.219551,-0.96413,0.0333729,0,1,0,12580,49.688,24.439,12143.3
4694773041,0.634769,2.223,125.846,-0.0819376,0.0253169,0.970177,-0.94613,0.623798,-0.0237238,-0.050164,-0.490298,-0.0517835,0,1,0,12580,49.688,24.439,12143.3
4694873428,0.634769,2.223,125.842,-0.0606275,0.0235807,0.970749,-0.900318,0.582777,-0.0315488,-0.0936995,-0.243935,-0.470577,0,1,0,12537,49.827,23.97,11943.5
4694973735,0.634769,2.223,125.848,-0.0465471,0.0192779,0.970973,-0.87896,0.553043,0.00504387,-0.0622412,-0.0361763,0.330899,0,1,0,12537,49.827,23.97,11943.5
4695074060,0.634769,2.223,125.856,-0.0384604,0.0188054,0.971284,-0.856885,0.5364,-0.027215,-0.00772475,0.0164561,-0.348789,0,1,0,12537,49.827,23.97,11943.5
4695174407,0.634769,2.223,125.862,-0.0319145,0.0148157,0.971805,-0.840635,0.522047,-0.0314067,0.0594534,0.0641398,0.0270378,0,1,0,12537,49.827,23.97,11943.5
4695274747,0.634769,2.223,125.866,-0.0276256,0.00986335,0.971747,-0.83955,0.519673,-0.0299179,0.0453042,0.179972,0.339428,0,1,0,12537,49.827,23.97,11943.5
4695375110,0.634769,2.223,125.864,-0.024087,0.00715824,0.971994,-0.846067,0.530717,-0.00732625,0.0460067,0.299869,-0.372454,0,1,0,12537,49.827,23.97,11943.5
4695475455,0.634769,2.223,125.865,-0.0273647,0.00566528,0.971841,-0.849974,0.544898,-0.0387563,0.15419,0.179621,0.019244,0,1,0,12537,49.827,23.97,11943.5
4695575888,0.634769,2.223,125.854,-0.0283663,0.00884816,0.971251,-0.851824,0.569827,-0.0390275,0.220772,0.33568,0.778507,0,1,0,12537,49.827,23.97,11943.5
4695676358,0.634769,2.223,125.84,-0.0347055,0.0131852,0.97145,-0.865197,0.589135,-0.02103,0.129267,0.329167,0.58765,0,-4.3,0,12537,49.827,23.97,11943.5
4695776681,0.634769,2.223,125.837,-0.0756558,0.016208,0.972843,-0.883692,0.597696,-0.0364729,0.0456734,0.315258,0.340417,0,-4.3,0,12537,49.827,23.97,11943.5
4695876977,0.634769,2.223,125.834,-0.218243,0.0133812,0.969163,-0.841323,0.579197,-0.0192582,0.124657,-0.741974,-0.31518,0,-4.3,0,12537,49.591,25.301,12547
4695977315,0.634769,2.223,125.832,-0.337973,0.00896385,0.969632,-0.683389,0.485246,-0.0828012,0.143954,-1.89976,0.617139,0,-4.3,0,12537,49.591,25.301,12547
4696077659,0.634769,2.223,125.817,-0.41159,0.00768934,0.969665,-0.407597,0.310831,-0.0888299,0.0410751,-3.0886,1.17985,0,-4.3,0,12537,49.591,25.301,12547
4696177934,0.634769,2.223,125.8,-0.44672,0.00745725,0.969452,-0.0555472,0.0810917,-0.0392402,0.159049,-3.70857,1.62795,0,-4.3,0,12537,49.591,25.301,12547
4696278158,0.634769,2.223,125.79,-0.451211,0.00731709,0.969439,0.296587,-0.146072,-0.0509077,0.208047,-3.38358,2.67668,0,-4.3,0,12537,49.591,25.301,12547
4696378456,0.634769,2.223,125.767,-0.44581,0.00950173,0.969057,0.668068,-0.370839,-0.0206957,0.203424,-3.68809,1.8531,0,-4.3,0,12537,49.591,25.301,12547
4696478807,0.634769,2.223,125.745,-0.441697,0.0146424,0.966944,0.99023,-0.601109,-0.0368615,-0.0994558,-3.46897,1.7151,0,-4.3,0,12537,49.591,25.301,12547
4696579199,0.634769,2.223,125.737,-0.433805,0.0192025,0.96527,1.30277,-0.825961,-0.0353244,-0.0464751,-3.34885,1.89117,0,-4.3,0,12537,49.591,25.301,12547
4696679506,0.634769,2.223,125.733,-0.426998,0.0228975,0.964712,1.65709,-1.06295,-0.00701411,-0.000668595,-3.54361,2.07429,0,-4.3,0,12537,49.591,25.301,12547
4696779865,0.634769,2.223,125.729,-0.419517,0.021173,0.965944,1.97412,-1.2964,0.0225256,-0.0683661,-3.50591,1.43005,0,-4.3,0,12537,49.591,25.301,12547
4696880236,0.634769,2.223,125.73,-0.412897,0.0164353,0.967775,2.26317,-1.50711,0.00651075,0.0612785,-3.09899,1.53934,0,-4.3,0,12537,49.617,24.88,12344.7
4696980598,0.634769,2.223,125.739,-0.379572,0.0170171,0.967153,2.54721,-1.70268,0.0252567,-0.0872107,-2.79372,1.05751,0,-4.3,0,12537,49.617,24.88,12344.7
4697080938,0.634769,2.223,125.755,-0.340786,0.0201226,0.965154,2.80007,-1.87079,0.0559674,0.1779,-2.54004,1.22471,0,-4.3,0,12537,49.617,24.88,12344.7
4697181281,0.634769,2.223,125.764,-0.29514,0.0262385,0.964358,3.00673,-2.01465,0.0469782,-0.0102988,-2.17402,0.629647,0,-4.3,0,12537,49.617,24.88,12344.7
4697281636,0.634769,2.223,125.768,-0.25816,0.0274801,0.96482,3.16492,-2.14973,0.0678673,-0.129431,-1.69923,1.01744,0,-4.3,0,12537,49.617,24.88,12344.7
4697382021,0.63477,2.223,125.784,-0.229501,0.0260843,0.965478,3.26989,-2.25815,0.0406286,-0.250195,-1.33287,-0.0308373,0,-4.3,0,12537,49.617,24.88,12344.7
4697482425,0.63477,2.223,125.799,-0.204237,0.0240758,0.965666,3.36438,-2.33733,0.0325174,-0.119824,-1.09668,-0.0426294,0,-4.3,0,12537,49.617,24.88,12344.7
4697582766,0.63477,2.223,125.809,-0.18658,0.0223665,0.966079,3.44008,-2.41371,0.029131,-0.0901856,-0.856316,0.833375,0,-4.3,0,12537,49.617,24.88,12344.7
4697684057,0.63477,2.223,125.814,-0.169264,0.0141819,0.967363,3.49126,-2.46561,0.0221242,-0.0639191,-0.659486,-0.190027,0,2.8,0,12537,49.617,24.88,12344.7
4697785613,0.63477,2.223,125.822,-0.14343,0.0101729,0.966065,3.54984,-2.49029,0.0214742,0.314832,-0.556075,0.153747,0,2.8,0,12537,49.617,24.88,12344.7
4697885955,0.63477,2.223,125.823,0.0792401,0.0102261,0.968694,3.58988,-2.51314,0.0793811,0.165393,-0.205964,1.09803,0,2.8,0,12537,49.617,24.88,12344.7
4697986304,0.63477,2.223,125.839,0.306018,0.0264985,0.977302,3.36364,-2.36624,0.136381,-0.0799082,3.0674,-0.154478,0,2.8,0,12537,49.636,25.172,12494.4
4698086650,0.63477,2.223,125.838,0.415662,0.0405904,0.984311,2.97225,-2.15053,0.0367161,-0.333522,4.26503,1.41837,0,2.8,0,12537,49.636,25.172,12494.4
4698187011,0.63477,2.223,125.837,0.454192,0.0361226,0.98596,2.50464,-1.87223,0.04757,0.0522621,4.77248,1.96606,0,2.8,0,12537,49.636,25.172,12494.4
4698287350,0.63477,2.223,125.829,0.460702,0.0272264,0.983929,2.05572,-1.59227,-0.0350085,-0.0355888,4.61283,2.0908,0,2.8,0,12537,49.636,25.172,12494.4
4698387694,0.63477,2.223,125.807,0.469259,0.0256517,0.982788,1.58696,-1.3047,-0.0827647,-0.1614,4.93297,1.91072,0,2.8,0,12537,49.636,25.172,12494.4
4698488072,0.63477,2.223,125.778,0.482445,0.0185918,0.979211,1.09793,-0.989043,-0.112843,-0.040991,5.2765,1.87241,0,2.8,0,12537,49.636,25.172,12494.4
4698588408,0.63477,2.223,125.739,0.498726,0.0140776,0.976922,0.58932,-0.651897,-0.141765,-0.00152717,4.78194,3.53585,0,2.8,0,12537,49.636,25.172,12494.4
4698688757,0.63477,2.223,125.704,0.505444,0.0158391,0.976411,0.0543678,-0.291156,-0.145125,-0.184869,5.27749,2.85503,0,2.8,0,12537,49.636,25.172,12494.4
4698789112,0.63477,2.223,125.671,0.500395,0.000901267,0.967338,-0.482966,0.0561517,-0.153381,-0.173981,5.12958,3.4798,0,2.8,0,12537,49.636,25.172,12494.4
4698889480,0.63477,2.223,125.662,0.435975,-0.0185309,0.959675,-1.0968,0.518196,-0.123487,0.277519,4.9235,3.43217,0,2.8,0,12537,49.636,25.172,12494.4
4698989813,0.63477,2.223,125.663,0.336009,-0.0354645,0.95628,-1.49777,0.86282,-0.0885598,0.492695,4.35816,1.84877,0,2.8,0,12537,49.645,27.609,13706.5
4699090185,0.63477,2.223,125.667,0.219312,-0.0338361,0.960956,-1.77699,1.14618,-0.0439415,0.724021,3.14225,1.4743,0,2.8,0,12537,49.645,27.609,13706.5
4699190525,0.63477,2.223,125.676,0.122199,-0.0118287,0.968265,-1.96457,1.32217,0.0335223,0.46134,2.08021,0.533805,0,2.8,0,12537,49.645,27.609,13706.5
4699290878,0.63477,2.223,125.702,0.0544961,0.00624119,0.971337,-2.09418,1.42057,0.0420798,-0.0356105,1.44541,-1.38529,0,2.8,0,12537,49.645,27.609,13706.5
4699391746,0.63477,2.223,125.726,0.0136145,0.0160309,0.971894,-2.17487,1.46031,0.0547455,-0.103048,0.61922,0.556078,0,2.8,0,12537,49.645,27.609,13706.5
4699495445,0.63477,2.223,125.748,-0.00708565,0.019579,0.97153,-2.20841,1.49207,0.0945735,0.0143887,0.30377,0.0547294,0,2.8,0,12537,49.645,27.609,13706.5
4699595850,0.63477,2.223,125.771,-0.0166094,0.019051,0.971266,-2.22912,1.52281,0.0727606,0.0570022,0.231543,-0.165301,0,2.8,0,12537,49.645,27.609,13706.5
4699697523,0.63477,2.223,125.776,-0.0209156,0.0181071,0.97156,-2.24351,1.54228,0.0620414,-0.0625513,0.170586,-0.329454,0,0.7,0,12537,49.645,27.609,13706.5
4699801104,0.63477,2.223,125.776,-0.061948,0.0146213,0.973514,-2.24109,1.54404,0.0445165,-0.0135902,0.133103,0.413841,0,0.7,0,12537,49.645,27.609,13706.5
4699905345,0.63477,2.223,125.778,-0.214527,0.0124712,0.970413,-2.19433,1.49423,0.0901269,-0.226212,-0.997244,-0.326986,0,0.7,0,12537,49.645,27.609,13706.5
4700005713,0.63477,2.223,125.778,-0.317317,0.00946815,0.970297,-2.00318,1.34688,0.000882361,-0.140498,-2.18576,0.375732,0,0.7,0,12537,49.893,23.345,11647.5
4700106062,0.63477,2.223,125.766,-0.353354,0.00804509,0.970327,-1.71968,1.16798,-0.00980772,0.0654306,-3.08517,1.05574,0,0.7,0,12537,49.893,23.345,11647.5
4700206441,0.634769,2.223,125.76,-0.327214,0.00911168,0.970833,-1.40506,0.967985,0.00134394,0.0784205,-3.17053,1.17826,0,0.7,0,12537,49.893,23.345,11647.5
4700306791,0.634769,2.223,125.752,-0.271959,0.0105181,0.970741,-1.14102,0.795975,0.0107306,0.0652348,-2.56562,1.06856,0,0.7,0,12537,49.893,23.345,11647.5
4700407147,0.634769,2.223,125.739,-0.215398,0.0124241,0.970712,-0.930182,0.651461,0.00724391,-0.0602729,-1.60221,0.56078,0,0.7,0,12537,49.893,23.345,11647.5
4700507495,0.634769,2.223,125.748,-0.172297,0.01207,0.970607,-0.785818,0.550383,0.0208165,-0.0357301,-1.43305,0.0763035,0,0.7,0,12537,49.893,23.345,11647.5
4700607838,0.634769,2.223,125.768,-0.13373,0.0124856,0.970856,-0.664619,0.481502,0.0084783,0.133823,-1.10736,-0.068239,0,0.7,0,12537,49.893,23.345,11647.5
4700708252,0.634769,2.223,125.775,-0.102275,0.0125719,0.971122,-0.581507,0.434608,0.0318846,0.136649,-0.598471,0.264459,0,0.7,0,12537,49.893,23.345,11647.5
4700808575,0.63477,2.223,125.782,-0.0775292,0.0127423,0.971197,-0.51576,0.400163,0.0135613,0.0891267,-0.483977,-0.511764,0,0.7,0,12537,49.893,23.345,11647.5
4700908944,0.63477,2.223,125.801,-0.0597472,0.0135868,0.971119,-0.488475,0.376708,0.0362915,-0.0445341,-0.0927076,-0.0122275,0,0.7,0,12537,49.893,23.345,11647.5
4701009293,0.63477,2.223,125.821,-0.0513394,0.0120482,0.971036,-0.459448,0.366701,0.0259137,0.0642126,-0.0532164,-0.407001,0,0.7,0,12537,49.713,24.204,12032.5
4701109637,0.63477,2.223,125.821,-0.0443303,0.0112612,0.971017,-0.431112,0.356474,-0.0104915,0.143919,-0.113693,0.0928648,0,0.7,0,12537,49.713,24.204,12032.5
4701209987,0.63477,2.223,125.817,-0.0395759,0.0115469,0.97053,-0.434504,0.341484,0.00186456,-0.0619894,0.0746166,0.161651,0,0.7,0,12537,49.713,24.204,12032.5
4701310342,0.63477,2.223,125.821,-0.0381159,0.0104724,0.970269,-0.430706,0.345921,-0.0240632,0.0884184,0.0829433,0.0697636,0,0.7,0,12537,49.713,24.204,12032.5
4701410701,0.63477,2.223,125.824,-0.0379112,0.0165607,0.970702,-0.420489,0.345844,3.50513e-05,0.0460873,0.00951598,-0.159563,0,0.7,0,12537,49.713,24.204,12032.5
4701511070,0.634769,2.223,125.816,-0.0360094,0.0204118,0.970998,-0.43388,0.333289,-0.0154317,-0.142855,0.0946127,-0.266596,0,0.7,0,12537,49.713,24.204,12032.5
4701611432,0.634769,2.223,125.807,-0.0335247,0.0228131,0.971354,-0.432213,0.325948,-0.020778,-0.0947349,-0.0040832,0.0910089,0,0.7,0,12537,49.713,24.204,12032.5
4701711790,0.634769,2.223,125.802,-0.0321069,0.021488,0.971879,-0.444466,0.314006,-0.0251015,-0.128772,0.0147743,-0.836545,0,-1.8,0,12537,49.713,24.204,12032.5
4701812406,0.634769,2.223,125.802,-0.0600935,0.0189279,0.974205,-0.461809,0.314122,-0.0187704,-0.0667858,0.230548,0.756506,0,-1.8,0,12537,49.713,24.204,12032.5
4701912822,0.634769,2.223,125.796,-0.202795,0.0157127,0.970388,-0.455757,0.287321,0.0252681,-0.0769579,-0.684424,-1.03296,0,-1.8,0,12537,49.713,24.204,12032.5
4702013234,0.634769,2.223,125.795,-0.328818,0.0133254,0.96891,-0.268455,0.193749,-0.0348337,0.131637,-2.22177,0.00405335,0,-1.8,0,12521,49.526,25.975,12864.4
4702113592,0.634769,2.223,125.793,-0.405918,0.013332,0.968106,-0.0269141,-0.0175547,-0.0562941,-0.265689,-3.25425,0.982754,0,-1.8,0,12521,49.526,25.975,12864.4
4702213965,0.634769,2.223,125.785,-0.416484,0.0100348,0.968029,0.297715,-0.250177,-0.0242825,0.13183,-3.38553,2.53613,0,-1.8,0,12521,49.526,25.975,12864.4
4702314313,0.634769,2.223,125.769,-0.380578,0.0110633,0.967429,0.597667,-0.464282,-0.0102993,0.00635617,-3.3835,1.32553,0,-1.8,0,12521,49.526,25.975,12864.4
4702414672,0.634769,2.223,125.746,-0.328993,0.00873595,0.968324,0.857202,-0.657013,-0.00837092,-0.028845,-2.87004,1.28564,0,-1.8,0,12521,49.526,25.975,12864.4
4702515023,0.634769,2.223,125.743,-0.275003,0.00504914,0.969315,1.06838,-0.812774,0.0068549,0.00256461,-2.369,0.863448,0,-1.8,0,12521,49.526,25.975,12864.4
4702615364,0.634769,2.223,125.74,-0.224907,0.00263728,0.969298,1.22409,-0.939326,-0.00437052,-0.0556511,-1.81944,0.719476,0,-1.8,0,12521,49.526,25.975,12864.4
4702715697,0.63477,2.223,125.731,-0.189965,-0.00138928,0.969809,1.33097,-1.01314,0.0197629,0.0822233,-1.24018,0.131607,0,-1.8,0,12521,49.526,25.975,12864.4
4702816081,0.63477,2.223,125.729,-0.161255,-0.00564422,0.970546,1.42516,-1.07806,0.0280706,0.286869,-1.0173,0.719264,0,-1.8,0,12521,49.526,25.975,12864.4
4702916428,0.63477,2.223,125.739,-0.13649,-0.00158054,0.969998,1.49584,-1.11414,0.0176777,0.232665,-0.749571,-0.247689,0,-1.8,0,12521,49.526,25.975,12864.4
4703016771,0.63477,2.223,125.745,-0.118682,0.00186164,0.969401,1.57161,-1.14663,0.0145847,0.134548,-0.697958,0.0606228,0,-1.8,0,12521,49.601,24.127,11967.2
4703117087,0.63477,2.223,125.754,-0.100346,0.000618398,0.969901,1.6179,-1.16935,0.0373928,0.160175,-0.439785,0.168289,0,-1.8,0,12521,49.601,24.127,11967.2
4703217445,0.63477,2.223,125.757,-0.0917937,0.000415478,0.970228,1.62731,-1.19117,0.00605642,-0.0837552,-0.224313,-0.78581,0,-1.8,0,12521,49.601,24.127,11967.2
4703317812,0.63477,2.223,125.75,-0.0864153,-0.00370963,0.97022,1.65102,-1.20062,-0.00785741,0.116695,-0.217467,0.636641,0,-1.8,0,12521,49.601,24.127,11967.2
4703418137,0.63477,2.223,125.747,-0.0842772,-0.00324699,0.969718,1.67201,-1.20525,0.0181579,0.187824,-0.211371,0.00126595,0,-1.8,0,12521,49.601,24.127,11967.2
4703518511,0.63477,2.223,125.749,-0.0819561,-0.0010385,0.969744,1.68243,-1.18836,0.0195756,0.262787,0.00810767,0.536857,0,-1.8,0,12521,49.601,24.127,11967.2
4703618865,0.63477,2.223,125.747,-0.0802264,0.00130204,0.96961,1.69302,-1.18162,0.0214979,0.166332,-0.149246,-0.411572,0,-1.8,0,12521,49.601,24.127,11967.2
4703719282,0.63477,2.223,125.746,-0.077886,0.00244489,0.969833,1.68777,-1.17511,0.00415491,0.0946893,0.0152362,0.304283,0,-4.7,0,12521,49.601,24.127,11967.2
4703819651,0.63477,2.223,125.741,-0.0933589,0.00249161,0.971658,1.67657,-1.16964,-0.0126647,0.0779247,0.0327372,0.251906,0,-4.7,0,12521,49.601,24.127,11967.2
4703922012,0.63477,2.223,125.73,-0.195814,0.00189007,0.97042,1.72722,-1.15173,0.024528,0.500289,-0.697856,-0.234149,0,-4.7,0,12521,49.601,24.127,11967.2
4704028084,0.63477,2.223,125.717,-0.307222,0.00609363,0.968442,1.87503,-1.26462,-0.0292901,-0.00626339,-1.72049,0.496801,0,-4.7,0,12521,49.588,25.673,12730.7
4704128475,0.63477,2.223,125.714,-0.378478,0.009544,0.967537,2.12045,-1.42613,-0.00709147,0.188666,-2.82238,1.05823,0,-4.7,0,12521,49.588,25.673,12730.7
4704228842,0.63477,2.223,125.719,-0.419602,0.0130457,0.966222,2.36124,-1.6222,-0.0531959,-0.081327,-2.944,1.41064,0,-4.7,0,12521,49.588,25.673,12730.7
4704329194,0.63477,2.223,125.716,-0.433005,0.0152396,0.965808,2.65888,-1.82927,-0.0241165,-0.248724,-3.02816,2.10519,0,-4.7,0,12521,49.588,25.673,12730.7
4704429547,0.63477,2.223,125.718,-0.415556,0.0118874,0.96785,2.95196,-2.05094,0.0111153,-0.0683372,-3.15406,1.48574,0,-4.7,0,12521,49.588,25.673,12730.7
4704530912,0.63477,2.223,125.721,-0.373733,0.0110795,0.968192,3.2045,-2.22331,-0.00568252,0.111303,-2.70849,1.18011,0,-4.7,0,12521,49.588,25.673,12730.7
4704631744,0.63477,2.223,125.721,-0.332789,0.0124081,0.967762,3.43845,-2.35794,0.0192203,0.183943,-2.36931,1.27739,0,-4.7,0,12521,49.588,25.673,12730.7
4704732149,0.63477,2.223,125.728,-0.289269,0.0135166,0.967724,3.60884,-2.49879,0.0498704,-0.136426,-1.96341,0.555284,0,-4.7,0,12521,49.588,25.673,12730.7
4704832472,0.63477,2.223,125.743,-0.250317,0.0100843,0.968128,3.74383,-2.59661,0.0476202,0.0560273,-1.48643,0.54216,0,-4.7,0,12521,49.588,25.673,12730.7
4704932788,0.63477,2.223,125.759,-0.220051,0.00583512,0.968765,3.85072,-2.684,0.0924757,-0.0411936,-1.1365,0.55184,0,-4.7,0,12521,49.588,25.673,12730.7
4705033100,0.63477,2.223,125.78,-0.199039,0.000345014,0.970508,3.93961,-2.73795,0.0736895,0.170994,-0.949774,0.118212,0,-4.7,0,12521,49.588,25.673,12730.7
4705133515,0.63477,2.223,125.805,-0.184459,0.000401624,0.97165,4.00786,-2.77251,0.0770121,0.16489,-0.664594,0.113968,0,-4.7,0,12521,49.526,25.673,12714.8
4705235442,0.634771,2.223,125.833,-0.168876,0.0036443,0.971238,4.08315,-2.78168,0.0526734,0.351822,-0.602684,0.12527,0,-4.7,0,12521,49.526,25.673,12714.8
4705335761,0.634771,2.223,125.84,-0.157919,0.00582319,0.97038,4.13976,-2.79012,0.0324364,0.441703,-0.524009,-0.0551543,0,-4.7,0,12521,49.526,25.673,12714.8
4705436198,0.634771,2.223,125.844,-0.146073,0.0119236,0.968818,4.1825,-2.80856,0.024206,0.114083,-0.437015,-0.0755383,0,-4.7,0,12521,49.526,25.673,12714.8
4705536560,0.634771,2.223,125.846,-0.140048,0.0145413,0.968449,4.19074,-2.84432,0.00969054,-0.160134,-0.353362,-0.463884,0,-4.7,0,12521,49.526,25.673,12714.8
4705636920,0.634771,2.223,125.839,-0.129674,0.0126629,0.968473,4.20992,-2.8533,-0.00793614,0.115004,-0.252048,-0.00895691,0,-4.7,0,12521,49.526,25.673,12714.8
4705737269,0.634771,2.223,125.838,-0.12553,0.0153439,0.968057,4.21652,-2.85,-0.033366,0.154549,-0.0805575,-0.129333,0,1.2,0,12521,49.526,25.673,12714.8
4705837624,0.634771,2.223,125.839,-0.0850363,0.0160052,0.965293,4.21481,-2.85401,-0.0402764,-0.0576141,-0.0375582,0.508094,0,1.2,0,12521,49.526,25.673,12714.8
4705937980,0.634771,2.223,125.837,0.147907,0.0132186,0.970673,4.17121,-2.83739,0.0635844,0.000814169,0.678801,1.05862,0,1.2,0,12521,49.526,25.673,12714.8
4706038317,0.634771,2.223,125.845,0.325349,0.0235166,0.975393,3.88365,-2.66145,0.0787452,-0.0422706,3.39071,0.348173,0,1.2,0,12521,49.526,25.673,12714.8
4706138685,0.634771,2.223,125.844,0.405976,0.0357855,0.982106,3.48615,-2.42728,0.0128235,-0.250408,3.98918,2.60737,0,1.2,0,12521,49.523,24.825,12294.1
4706239040,0.634771,2.223,125.838,0.442931,0.0416343,0.986091,3.061,-2.13819,-0.0340348,0.0097288,4.75158,1.47148,0,1.2,0,12521,49.523,24.825,12294.1
4706339379,0.634771,2.223,125.826,0.46778,0.0485821,0.989406,2.57876,-1.84809,-0.0643712,-0.32433,5.06602,2.26983,0,1.2,0,12521,49.523,24.825,12294.1
4706439768,0.634771,2.223,125.817,0.481785,0.0485031,0.989235,2.05375,-1.58719,-0.106985,-0.486218,5.04203,2.68673,0,1.2,0,12521,49.523,24.825,12294.1
4706540133,0.634771,2.223,125.794,0.490371,0.0444942,0.988677,1.50016,-1.2996,-0.120033,-0.560656,5.00938,3.12359,0,1.2,0,12521,49.523,24.825,12294.1
4706640480,0.634771,2.223,125.76,0.477606,0.0339387,0.985098,0.961413,-0.97942,-0.122278,-0.212791,5.28291,2.81735,0,1.2,0,12521,49.523,24.825,12294.1
4706740829,0.634771,2.223,125.746,0.417634,0.0158706,0.977859,0.465363,-0.645961,-0.0932048,-0.0163888,4.73618,3.34565,0,1.2,0,12521,49.523,24.825,12294.1
4706841991,0.634771,2.223,125.737,0.328791,-0.00902547,0.970191,0.04022,-0.332748,-0.0514409,0.315993,4.44728,1.59198,0,1.2,0,12521,49.523,24.825,12294.1
4706947285,0.634771,2.223,125.735,0.234442,-0.0250691,0.967763,-0.309649,-0.0360256,-0.0497951,0.326148,3.17627,0.97304,0,1.2,0,12521,49.523,24.825,12294.1
4707047643,0.634771,2.223,125.738,0.144885,-0.0325026,0.968414,-0.503524,0.165484,-0.031471,0.434408,2.22945,0.221744,0,1.2,0,12521,49.523,24.825,12294.1
4707148041,0.634771,2.223,125.752,0.0759473,-0.031303,0.969828,-0.654443,0.260886,0.00101483,-0.0680569,1.34271,0.617568,0,1.2,0,12521,49.516,24.743,12251.7
4707248406,0.634771,2.223,125.769,0.0303966,-0.0330939,0.971365,-0.748612,0.34862,0.0190196,0.291424,0.913623,0.421046,0,1.2,0,12521,49.516,24.743,12251.7
4707348795,0.634771,2.223,125.785,0.00291997,-0.0270489,0.972423,-0.789634,0.430974,0.0295305,0.403387,0.585358,-0.259851,0,1.2,0,12521,49.516,24.743,12251.7
4707450623,0.634771,2.223,125.803,-0.0161013,-0.0228707,0.972689,-0.813226,0.493514,0.0346607,0.331788,0.363975,0.0923649,0,1.2,0,12521,49.516,24.743,12251.7
4707555520,0.634771,2.223,125.808,-0.026785,-0.0167711,0.972342,-0.816872,0.539587,0.0304965,0.284098,0.205616,-0.168938,0,1.2,0,12521,49.516,24.743,12251.7
4707655918,0.634771,2.223,125.811,-0.0336388,-0.0100443,0.971992,-0.814183,0.569619,0.0142201,0.247906,0.136755,-0.223243,0,1.2,0,12521,49.516,24.743,12251.7
4707756468,0.634771,2.223,125.813,-0.034989,-0.00192181,0.971411,-0.799151,0.58898,0.0128531,0.190404,0.0167788,-0.17836,0,-2.7,0,12521,49.516,24.743,12251.7
4707856831,0.634771,2.223,125.817,-0.0636504,0.0068284,0.9729,-0.803564,0.599845,0.0119232,-0.0355293,0.210035,0.222519,0,-2.7,0,12521,49.516,24.743,12251.7
4707957189,0.634771,2.223,125.813,-0.218417,0.0115786,0.970132,-0.790067,0.57158,0.0145334,-0.247881,-0.546075,-0.642007,0,-2.7,0,12521,49.516,24.743,12251.7
4708057530,0.634771,2.223,125.805,-0.357307,0.0127786,0.967837,-0.610212,0.45592,-0.0598359,-0.0330253,-2.31598,-0.0284604,0,-2.7,0,12521,49.516,24.743,12251.7
4708157907,0.634771,2.223,125.798,-0.442584,0.0125838,0.966514,-0.311624,0.224515,-0.0984793,-0.275509,-3.26366,1.80986,0,-2.7,0,12521,49.516,24.743,12251.7
4708258280,0.634771,2.223,125.789,-0.478565,0.0104984,0.966665,0.0629876,-0.0493766,-0.0315943,-0.142513,-3.92609,2.04,0,-2.7,0,12521,49.516,24.743,12251.7
4708358633,0.634771,2.223,125.769,-0.486088,0.0105855,0.966887,0.450861,-0.34391,-0.0373797,-0.371319,-4.03937,2.45796,0,-2.7,0,12521,49.516,24.743,12251.7
4708459000,0.634771,2.223,125.739,-0.473104,0.00789113,0.967419,0.851704,-0.629618,-0.0289171,-0.0915598,-4.1004,2.36953,0,-2.7,0,12521,49.516,24.743,12251.7
4708559347,0.634771,2.223,125.73,-0.414382,0.00590434,0.967831,1.2451,-0.896767,-0.0187769,-0.0349019,-3.69942,2.22507,0,-2.7,0,12521,49.516,24.743,12251.7
4708659697,0.634771,2.223,125.729,-0.344382,0.000110552,0.969811,1.56852,-1.12387,0.0336175,-0.012247,-3.35522,0.951658,0,-2.7,0,12493,49.775,21.291,10597.6
4708760087,0.634771,2.223,125.734,-0.279375,-0.00383745,0.971691,1.82521,-1.30321,0.0432535,0.0192029,-2.43691,1.2081,0,-2.7,0,12493,49.775,21.291,10597.6
4708860399,0.634771,2.223,125.74,-0.222836,-0.00720186,0.9726,2.01076,-1.42268,0.0569739,0.0381613,-1.68934,0.446495,0,-2.7,0,12493,49.775,21.291,10597.6
4708960750,0.634771,2.223,125.771,-0.18486,-0.00865852,0.973204,2.15863,-1.5109,0.0694844,0.193848,-1.28276,0.504909,0,-2.7,0,12493,49.775,21.291,10597.6
4709062379,0.634771,2.223,125.812,-0.158422,-0.00802758,0.972717,2.27742,-1.5784,0.0442595,0.178931,-1.08719,-0.338539,0,-2.7,0,12493,49.775,21.291,10597.6
4709167987,0.634771,2.223,125.838,-0.133174,-0.00673368,0.972268,2.367,-1.63759,0.0121693,0.0708944,-0.688822,-0.587769,0,-2.7,0,12493,49.775,21.291,10597.6
4709272711,0.634771,2.223,125.862,-0.109903,-0.00561668,0.971985,2.41776,-1.6722,0.000711389,0.00245069,-0.368681,-0.388257,0,-2.7,0,12493,49.775,21.291,10597.6
4709373206,0.634771,2.223,125.88,-0.0943897,-0.00637083,0.971871,2.45624,-1.68133,0.0211058,0.207443,-0.212742,-0.17905,0,-2.7,0,12493,49.775,21.291,10597.6
4709473592,0.634771,2.223,125.899,-0.0841535,-0.00784764,0.971819,2.47194,-1.6848,0.00118385,0.096596,-0.0827772,-0.518482,0,-2.7,0,12493,49.775,21.291,10597.6
4709573964,0.634772,2.223,125.909,-0.0805412,-0.0093038,0.971846,2.4978,-1.66989,-0.0150196,0.412298,-0.14728,-0.355666,0,-2.7,0,12493,49.775,21.291,10597.6
4709674320,0.634772,2.223,125.913,-0.075239,-0.0041023,0.971977,2.49734,-1.65971,-0.0144418,0.0928,0.0766937,-0.202665,0,-2.7,0,12493,49.573,26.366,13070.4
4709774712,0.634772,2.223,125.915,-0.0749017,-0.00285422,0.971501,2.48285,-1.6513,-0.0331596,-0.105881,0.169128,0.39134,0,-3.9,0,12493,49.573,26.366,13070.4
4709875047,0.634772,2.223,125.918,-0.0901707,-0.0025395,0.973057,2.45944,-1.6525,-0.0368429,-0.0211959,0.189282,-0.102524,0,-3.9,0,12493,49.573,26.366,13070.4
4709975426,0.634772,2.223,125.911,-0.157563,0.00110144,0.971717,2.45928,-1.65407,-0.0505395,-0.0142425,-0.258828,0.121913,0,-3.9,0,12493,49.573,26.366,13070.4
4710075820,0.634772,2.223,125.901,-0.230169,0.00182334,0.971419,2.49549,-1.72357,-0.0753123,-0.290548,-0.910744,-0.32195,0,-3.9,0,12493,49.573,26.366,13070.4
4710176212,0.634772,2.223,125.896,-0.269487,0.00390799,0.970609,2.5987,-1.80165,-0.105358,-0.0280657,-1.4787,-0.11462,0,-3.9,0,12493,49.573,26.366,13070.4
4710276580,0.634772,2.223,125.887,-0.277169,0.0100536,0.968854,2.75432,-1.86368,-0.122454,0.258431,-1.78864,0.47236,0,-3.9,0,12493,49.573,26.366,13070.4
4710376942,0.634772,2.223,125.878,-0.257995,0.012762,0.967924,2.89332,-1.98266,-0.0867696,-0.000478367,-1.62912,1.39331,0,-3.9,0,12493,49.573,26.366,13070.4
4710477313,0.634772,2.223,125.868,-0.2368,0.0113591,0.967766,3.01892,-2.05912,-0.0503286,-0.0227234,-1.43206,0.284027,0,-3.9,0,12493,49.573,26.366,13070.4
4710577614,0.634772,2.223,125.86,-0.216804,0.00738143,0.968795,3.11236,-2.13309,-0.0650867,-0.0340516,-1.22947,0.408591,0,-3.9,0,12493,49.573,26.366,13070.4
4710677978,0.634772,2.223,125.848,-0.196126,0.00439895,0.96942,3.19869,-2.20128,-0.0431219,-0.049936,-1.0091,0.505296,0,-3.9,0,12449,49.503,26.91,13321.3
4710778381,0.634772,2.223,125.852,-0.177,0.00274053,0.97026,3.26635,-2.24378,-0.0506124,0.0488542,-0.853009,-0.189544,0,-3.9,0,12449,49.503,26.91,13321.3
4710879293,0.634772,2.223,125.861,-0.161246,0.00212288,0.970384,3.31691,-2.27071,-0.035505,0.19682,-0.352125,0.281862,0,-3.9,0,12449,49.503,26.91,13321.3
4710984590,0.634772,2.223,125.861,-0.149544,0.000392709,0.97118,3.36338,-2.30149,-0.00926244,0.095657,-0.470377,-0.253885,0,-3.9,0,12449,49.503,26.91,13321.3
4711088707,0.634772,2.223,125.866,-0.141846,-0.00415352,0.972079,3.39395,-2.31133,-3.83779e-05,0.318423,-0.372887,0.193598,0,-3.9,0,12449,49.503,26.91,13321.3
4711189078,0.634772,2.223,125.877,-0.132506,-0.00225616,0.972187,3.44152,-2.32152,-0.00162596,0.291932,-0.284341,0.839325,0,-3.9,0,12449,49.503,26.91,13321.3
4711289494,0.634772,2.223,125.885,-0.127659,-0.00139523,0.97209,3.46641,-2.33262,-0.029369,0.0976885,-0.147871,0.429882,0,-3.9,0,12449,49.503,26.91,13321.3
4711389839,0.634772,2.223,125.895,-0.121328,0.0026189,0.971431,3.49472,-2.32726,-0.0108934,0.163215,-0.241064,-1.09919,0,-3.9,0,12449,49.503,26.91,13321.3
4711490186,0.634772,2.223,125.897,-0.118501,0.00461039,0.971425,3.50288,-2.34134,-0.0237742,-0.171128,-0.061278,-0.266107,0,-3.9,0,12449,49.503,26.91,13321.3
4711590543,0.634772,2.223,125.9,-0.11459,0.00469877,0.970953,3.51447,-2.35369,-0.0398402,0.0572354,-0.161979,-0.248278,0,-3.9,0,12449,49.503,26.91,13321.3
4711690914,0.634773,2.223,125.898,-0.110799,0.00402293,0.970889,3.53143,-2.36495,-0.0428787,0.0874654,-0.283175,-0.667503,0,-3.9,0,12449,49.542,24.873,12322.6
4711791303,0.634773,2.223,125.897,-0.1049,0.00448319,0.970793,3.5492,-2.36872,-0.0503486,0.0828379,-0.0834686,0.245445,0,3.6,0,12449,49.542,24.873,12322.6
4711891654,0.634773,2.223,125.896,-0.0780305,0.00475298,0.96771,3.55294,-2.38502,-0.0517804,-0.0398968,-0.194443,0.603935,0,3.6,0,12449,49.542,24.873,12322.6
4711992050,0.634773,2.223,125.906,0.127207,-0.00179235,0.969375,3.51221,-2.36378,0.0541122,0.0490784,0.798416,0.631686,0,3.6,0,12449,49.542,24.873,12322.6
4712092459,0.634773,2.223,125.918,0.310983,0.00643974,0.971873,3.25627,-2.17523,0.0361665,0.084741,3.34569,-0.0389374,0,3.6,0,12449,49.542,24.873,12322.6
4712192810,0.634773,2.223,125.914,0.393786,0.0129331,0.974115,2.87949,-1.92422,-0.00889162,0.121259,4.24714,1.72029,0,3.6,0,12449,49.542,24.873,12322.6
4712293133,0.634773,2.223,125.909,0.438942,0.0184087,0.977261,2.4545,-1.63178,-0.0350888,0.0942228,4.88007,1.64505,0,3.6,0,12449,49.542,24.873,12322.6
4712393501,0.634773,2.223,125.904,0.45949,0.0271466,0.980533,1.97976,-1.35495,-0.0892249,-0.27011,4.91151,1.87463,0,3.6,0,12449,49.542,24.873,12322.6
4712493858,0.634773,2.223,125.873,0.472077,0.0386491,0.984488,1.51615,-1.06707,-0.13418,-0.157848,4.89078,2.38942,0,3.6,0,12449,49.542,24.873,12322.6
4712594187,0.634773,2.223,125.84,0.476976,0.0427503,0.984753,0.997609,-0.7562,-0.112042,-0.166521,5.28637,2.5865,0,3.6,0,12449,49.542,24.873,12322.6
4712694587,0.634773,2.223,125.818,0.482662,0.0326119,0.979181,0.498621,-0.457536,-0.173174,-0.425178,5.03565,2.83926,0,3.6,0,12449,49.542,24.873,12322.6
4712794922,0.634773,2.223,125.799,0.476488,0.0184653,0.973834,-0.00791621,-0.107228,-0.123614,0.0406104,5.24816,2.61342,0,3.6,0,12449,49.602,24.524,12164.4
4712895260,0.634773,2.223,125.775,0.462158,0.00671363,0.970152,-0.488477,0.236076,-0.12371,0.0323938,4.535,3.69566,0,3.6,0,12449,49.602,24.524,12164.4
4712995589,0.634773,2.223,125.761,0.440242,-0.0102836,0.965171,-0.958241,0.571593,-0.106589,0.176605,4.96371,2.23792,0,3.6,0,12449,49.602,24.524,12164.4
4713095917,0.634773,2.223,125.755,0.390408,-0.0143298,0.964548,-1.39277,0.906804,-0.091101,0.222687,4.67516,2.47802,0,3.6,0,12449,49.602,24.524,12164.4
4713196262,0.634773,2.223,125.755,0.312344,-0.00987587,0.967947,-1.81272,1.20796,0.000723697,-0.0569065,4.17862,2.60187,0,3.6,0,12449,49.602,24.524,12164.4
4713296548,0.634773,2.223,125.756,0.225293,-0.00790472,0.96975,-2.10548,1.42527,-0.00171367,0.0611429,3.09584,1.15033,0,3.6,0,12449,49.602,24.524,12164.4
4713396954,0.634773,2.223,125.761,0.15525,-0.00563543,0.971078,-2.30627,1.58323,0.013719,0.179465,2.24115,0.448853,0,3.6,0,12449,49.602,24.524,12164.4
4713497340,0.634773,2.223,125.767,0.105139,0.000566963,0.972209,-2.4642,1.68921,0.0255356,-0.076122,1.73901,0.279238,0,3.6,0,12449,49.602,24.524,12164.4
4713597704,0.634773,2.223,125.773,0.0717434,0.00235738,0.972357,-2.56966,1.76562,0.0276515,-0.000831815,1.16795,0.135217,0,3.6,0,12449,49.602,24.524,12164.4
4713698052,0.634772,2.223,125.762,0.0555674,0.00388829,0.97243,-2.64082,1.82296,0.013104,0.0163736,0.906168,-0.192066,0,3.6,0,12449,49.602,24.524,12164.4
4713798434,0.634772,2.223,125.747,0.0452128,0.00457452,0.972291,-2.69635,1.86628,0.0188537,0.00557121,0.75256,-0.0132006,0,0.3,0,12449,49.648,22.043,10943.9
4713898829,0.634772,2.223,125.739,0.0178825,0.00678047,0.974381,-2.73647,1.90663,0.0185092,0.0648492,0.661716,-0.0694396,0,0.3,0,12449,49.648,22.043,10943.9
4713999197,0.634772,2.223,125.734,-0.166371,0.0107561,0.97212,-2.74215,1.92058,0.0743734,0.0609862,0.0363833,0.338322,0,0.3,0,12449,49.648,22.043,10943.9
4714099568,0.634772,2.223,125.728,-0.344092,0.0118815,0.969716,-2.56813,1.80258,0.0104578,-0.0648982,-2.38912,-0.537785,0,0.3,0,12449,49.648,22.043,10943.9
4714200724,0.634772,2.223,125.715,-0.449909,0.0098878,0.969533,-2.25788,1.58556,-0.0727742,-0.0302249,-3.24615,1.82013,0,0.3,0,12449,49.648,22.043,10943.9
4714307182,0.634772,2.223,125.708,-0.47458,0.0125269,0.96843,-1.72528,1.24098,-0.0192088,0.241883,-4.41634,2.46127,0,0.3,0,12449,49.648,22.043,10943.9
4714409124,0.634772,2.223,125.705,-0.418186,0.0154299,0.967917,-1.31836,0.952299,0.0242718,-0.102004,-3.95171,2.0955,0,0.3,0,12449,49.648,22.043,10943.9
4714509505,0.634772,2.223,125.693,-0.337443,0.0137796,0.969544,-0.976309,0.724016,0.0397788,0.175205,-3.35937,1.35506,0,0.3,0,12449,49.648,22.043,10943.9
4714609907,0.634772,2.223,125.68,-0.25945,0.0120409,0.970972,-0.719444,0.55856,0.0618564,0.0754569,-2.60229,0.358561,0,0.3,0,12449,49.648,22.043,10943.9
4714710299,0.634772,2.223,125.699,-0.192608,0.00931293,0.97205,-0.539606,0.434676,0.0409606,0.0686859,-1.57734,0.661886,0,0.3,0,12449,49.648,22.043,10943.9
4714810661,0.634772,2.223,125.723,-0.143764,0.00694486,0.972481,-0.412669,0.334284,0.0361933,-0.148993,-1.10978,-0.0977338,0,0.3,0,12449,49.621,25.976,12889.6
4714910981,0.634772,2.223,125.734,-0.107354,0.0031297,0.972467,-0.304029,0.280876,0.0578851,0.18913,-0.665645,0.400779,0,0.3,0,12449,49.621,25.976,12889.6
4715011311,0.634772,2.223,125.747,-0.0818432,0.00159859,0.972384,-0.235714,0.235895,0.056926,0.0795525,-0.435724,-0.203157,0,0.3,0,12449,49.621,25.976,12889.6
4715111691,0.634772,2.223,125.762,-0.0591228,-0.00227359,0.972014,-0.18946,0.204524,0.0506213,0.0170711,-0.188855,-0.483679,0,0.3,0,12449,49.621,25.976,12889.6
4715212102,0.634772,2.223,125.773,-0.0468675,-0.0019329,0.971695,-0.156619,0.193557,0.0394104,0.160118,-0.021877,-0.0367193,0,0.3,0,12449,49.621,25.976,12889.6
4715312514,0.634772,2.223,125.784,-0.0403387,-0.00234102,0.971327,-0.139836,0.195695,0.0369853,0.213692,0.13766,0.236343,0,0.3,0,12449,49.621,25.976,12889.6
4715412874,0.634772,2.223,125.795,-0.03792,-0.000196563,0.97107,-0.139891,0.206101,0.0248199,0.111909,0.278215,-0.33497,0,0.3,0,12449,49.621,25.976,12889.6
4715513168,0.634772,2.223,125.801,-0.0389877,0.00216789,0.970846,-0.139094,0.21912,0.0136635,0.173919,0.195427,0.341754,0,0.3,0,12449,49.621,25.976,12889.6
4715613508,0.634772,2.223,125.801,-0.0403564,0.00478584,0.970899,-0.128858,0.22475,-0.00414458,0.1657,0.0803137,-0.164554,0,0.3,0,12449,49.621,25.976,12889.6
4715713852,0.634772,2.223,125.797,-0.040752,0.0102682,0.970877,-0.134735,0.226816,-0.0180977,0.0689626,0.141631,0.155708,0,0.3,0,12449,49.621,25.976,12889.6
4715814240,0.634772,2.223,125.788,-0.0414931,0.0107602,0.970752,-0.144089,0.221739,-0.0166793,0.0216747,0.076844,0.106898,0,-4.3,0,12405,49.406,27.618,13644.9
4715914538,0.634772,2.223,125.78,-0.067596,0.0147068,0.972212,-0.151276,0.217373,0.00982787,0.0423625,0.168028,0.617388,0,-4.3,0,12405,49.406,27.618,13644.9
4716014881,0.634772,2.223,125.781,-0.203776,0.0119845,0.969557,-0.140898,0.181041,0.0191193,-0.241542,-0.69368,-0.766155,0,-4.3,0,12405,49.406,27.618,13644.9
4716115209,0.634772,2.223,125.787,-0.330657,0.00375129,0.969966,0.0136256,0.0734337,-0.0404379,0.165971,-2.0194,0.515999,0,-4.3,0,12405,49.406,27.618,13644.9
4716215561,0.634772,2.223,125.785,-0.405822,0.00398594,0.969313,0.321025,-0.0694524,-0.043038,0.688127,-3.13963,1.43335,0,-4.3,0,12405,49.406,27.618,13644.9
4716315914,0.634772,2.223,125.785,-0.437517,0.0087099,0.968493,0.639138,-0.284293,-0.035534,0.0921006,-3.35028,1.84554,0,-4.3,0,12405,49.406,27.618,13644.9
4716416302,0.634772,2.223,125.79,-0.446251,0.0116005,0.968104,0.970342,-0.526305,-0.0144709,-0.00943888,-3.62519,1.78266,0,-4.3,0,12405,49.406,27.618,13644.9
4716516647,0.634772,2.223,125.791,-0.44643,0.0145121,0.967017,1.29519,-0.76021,0.00386346,-0.0330411,-3.63409,1.56721,0,-4.3,0,12405,49.406,27.618,13644.9
4716616981,0.634772,2.223,125.785,-0.444587,0.0158376,0.966263,1.61841,-0.985871,0.0288373,0.0529702,-3.32587,2.00721,0,-4.3,0,12405,49.406,27.618,13644.9
4716717328,0.634772,2.223,125.792,-0.444,0.0168235,0.965864,1.89121,-1.21952,0.000980609,-0.20804,-3.35235,1.00524,0,-4.3,0,12405,49.406,27.618,13644.9
4716817680,0.634772,2.223,125.805,-0.436174,0.0144814,0.965833,2.19595,-1.47737,-0.0189127,-0.25135,-3.52446,1.66353,0,-4.3,0,12405,49.44,26.036,12872.2
4716918038,0.634772,2.223,125.809,-0.406358,0.0144729,0.96447,2.50042,-1.70657,-0.00400651,-0.151689,-3.39805,1.3014,0,-4.3,0,12405,49.44,26.036,12872.2
4717018392,0.634773,2.223,125.815,-0.360954,0.0185351,0.962182,2.75275,-1.91038,-0.00743925,-0.201542,-2.86354,1.00438,0,-4.3,0,12405,49.44,26.036,12872.2
4717118773,0.634773,2.223,125.822,-0.315164,0.0178575,0.96247,2.95157,-2.09323,0.00559021,-0.315162,-2.19879,1.02232,0,-4.3,0,12405,49.44,26.036,12872.2
4717219119,0.634773,2.223,125.829,-0.280908,0.00926129,0.965319,3.08639,-2.25258,-0.00295776,-0.418572,-1.99083,-0.0379671,0,-4.3,0,12405,49.44,26.036,12872.2
4717319474,0.634773,2.223,125.842,-0.248364,-0.00250469,0.967788,3.20323,-2.35474,-0.0374608,-0.0578133,-1.15364,1.41762,0,-4.3,0,12405,49.44,26.036,12872.2
4717419802,0.634773,2.223,125.854,-0.219648,-0.00808069,0.968813,3.32002,-2.44145,-0.017284,0.163647,-1.44334,-0.187588,0,-4.3,0,12405,49.44,26.036,12872.2
4717520207,0.634773,2.223,125.859,-0.19325,-0.00820408,0.969452,3.41919,-2.50589,-0.0512498,0.134813,-1.02068,0.57792,0,-4.3,0,12405,49.44,26.036,12872.2
4717620563,0.634773,2.223,125.86,-0.168498,-0.00975185,0.969487,3.4888,-2.56702,-0.00568003,0.0129299,-0.838539,0.115727,0,-4.3,0,12405,49.44,26.036,12872.2
4717720911,0.634773,2.223,125.861,-0.153734,-0.0152143,0.970228,3.52359,-2.60261,-0.0258744,-0.0412789,-0.498417,-0.0626281,0,-4.3,0,12405,49.44,26.036,12872.2
4717821317,0.634773,2.223,125.859,-0.141582,-0.0202351,0.9713,3.55036,-2.63251,-0.0234504,0.112358,-0.401519,0.211661,0,3,0,12405,49.44,26.036,12872.2
4717921676,0.634773,2.223,125.86,-0.11658,-0.0190522,0.968995,3.57914,-2.63167,-0.0146377,0.30524,-0.392622,-0.454159,0,3,0,12405,49.516,25.332,12543.4
4718022012,0.634773,2.223,125.864,0.0988488,-0.0111849,0.968587,3.61274,-2.60558,0.0373609,0.22174,0.0112357,1.39924,0,3,0,12405,49.516,25.332,12543.4
4718122376,0.634773,2.223,125.876,0.304423,-0.00282726,0.970233,3.37728,-2.43004,0.117621,0.233748,2.96744,0.411118,0,3,0,12405,49.516,25.332,12543.4
4718222719,0.634773,2.223,125.871,0.406973,0.0110793,0.97589,3.03208,-2.18264,0.0286384,-0.0458062,4.09124,1.21374,0,3,0,12405,49.516,25.332,12543.4
4718323083,0.634773,2.223,125.866,0.455731,0.0182325,0.980151,2.56979,-1.89416,0.0157606,-0.241747,4.71173,2.35496,0,3,0,12405,49.516,25.332,12543.4
4718423437,0.634773,2.22299,125.859,0.469774,0.0245562,0.98367,2.03874,-1.61602,-0.0271979,-0.563714,4.98912,2.2841,0,3,0,12405,49.516,25.332,12543.4
4718523785,0.634773,2.22299,125.844,0.475346,0.0260945,0.98357,1.53923,-1.31571,-0.064226,-0.420708,5.24782,1.97721,0,3,0,12405,49.516,25.332,12543.4
4718625902,0.634773,2.22299,125.839,0.492516,0.0308535,0.985643,1.04796,-0.998046,-0.119387,-0.221389,5.22508,2.44194,0,3,0,12405,49.516,25.332,12543.4
4718731415,0.634773,2.22299,125.828,0.499538,0.0298039,0.986577,0.396325,-0.620287,-0.129877,-0.360105,5.32061,2.61867,0,3,0,12405,49.516,25.332,12543.4
4718831862,0.634773,2.22299,125.813,0.489088,0.0215444,0.986061,-0.159749,-0.283879,-0.11977,-0.254442,5.38419,2.74098,0,3,0,12405,49.516,25.332,12543.4
4718932285,0.634773,2.22299,125.792,0.464487,0.00249373,0.980395,-0.67696,0.0580306,-0.119518,-0.000360653,5.08466,2.93214,0,3,0,12405,49.404,26.21,12948.8
4719032634,0.634773,2.22299,125.771,0.390896,-0.0199057,0.973959,-1.17056,0.374363,-0.0996448,-0.0152813,4.8655,2.27833,0,3,0,12405,49.404,26.21,12948.8
4719132933,0.634773,2.223,125.756,0.296343,-0.0428047,0.967647,-1.53078,0.658595,-0.0619545,0.509061,3.65494,2.09781,0,3,0,12405,49.404,26.21,12948.8
4719233206,0.634773,2.223,125.751,0.208599,-0.0452238,0.966866,-1.78742,0.915897,-0.00514388,0.581213,2.90032,1.05848,0,3,0,12405,49.404,26.21,12948.8
4719333545,0.634773,2.223,125.757,0.140536,-0.0441983,0.966361,-1.95583,1.08456,-0.00330998,0.435851,1.95164,0.244585,0,3,0,12405,49.404,26.21,12948.8
4719435430,0.634773,2.223,125.767,0.0928712,-0.0396452,0.966526,-2.08211,1.21724,0.0158696,0.335678,1.43303,0.44069,0,3,0,12405,49.404,26.21,12948.8
4719535781,0.634773,2.223,125.79,0.0628129,-0.0348705,0.966903,-2.15909,1.32341,0.0326246,0.380788,0.987681,0.0127935,0,3,0,12405,49.404,26.21,12948.8
4719636125,0.634773,2.223,125.813,0.0455981,-0.0288702,0.967315,-2.20941,1.40591,0.0295884,0.316634,0.725054,-0.284866,0,3,0,12405,49.404,26.21,12948.8
4719736498,0.634773,2.223,125.822,0.0335755,-0.0219678,0.968102,-2.24697,1.48397,0.00181525,0.356959,0.609688,-0.35707,0,3,0,12405,49.404,26.21,12948.8
4719836867,0.634773,2.223,125.831,0.0268662,-0.0135108,0.968797,-2.27084,1.53074,0.0135999,0.115923,0.461915,-0.131665,0,3.5,0,12405,49.404,26.21,12948.8
4719937225,0.634773,2.223,125.837,0.0455758,-0.00782218,0.968041,-2.28913,1.57079,0.0148081,0.0814751,0.310039,0.478022,0,3.5,0,12405,49.439,25.778,12744.4
4720037582,0.634773,2.223,125.843,0.0813597,-0.00330871,0.96886,-2.33965,1.62224,0.025551,0.0239221,0.93044,-0.499682,0,3.5,0,12405,49.439,25.778,12744.4
4720137927,0.634773,2.223,125.85,0.0925009,-0.00235897,0.969011,-2.40568,1.68418,-0.00488466,0.124047,1.03989,-0.15378,0,3.5,0,12405,49.439,25.778,12744.4
4720238253,0.634773,2.223,125.849,0.0929801,0.000882592,0.969433,-2.47889,1.74576,-0.0126494,0.0319435,1.09329,-0.0866885,0,3.5,0,12405,49.439,25.778,12744.4
4720338623,0.634773,2.223,125.842,0.0862992,0.00419362,0.969734,-2.54511,1.80168,-0.0014103,0.0500543,0.998858,0.245733,0,3.5,0,12405,49.439,25.778,12744.4
4720438976,0.634773,2.223,125.839,0.0741145,0.00701144,0.96989,-2.6037,1.84452,-0.0249442,-0.0252569,0.87286,-0.196474,0,3.5,0,12405,49.439,25.778,12744.4
4720539327,0.634773,2.223,125.826,0.060612,0.0075172,0.970069,-2.65487,1.86607,-0.0378986,-0.116733,0.686849,-0.0786574,0,3.5,0,12405,49.439,25.778,12744.4
4720639675,0.634773,2.223,125.812,0.051295,0.00657065,0.970325,-2.70579,1.88827,-0.033054,-0.162829,0.711543,0.122741,0,3.5,0,12405,49.439,25.778,12744.4
4720740064,0.634773,2.223,125.805,0.0441598,0.00422774,0.970369,-2.74026,1.88781,-0.0303045,-0.196761,0.470617,0.0346037,0,3.5,0,12405,49.439,25.778,12744.4
4720841282,0.634773,2.223,125.795,0.0423815,0.0012006,0.970344,-2.77265,1.89047,-0.0286866,-0.164801,0.436486,0.139413,0,3.5,0,12405,49.439,25.778,12744.4
4720947878,0.634773,2.223,125.783,0.0408921,-0.00065323,0.970277,-2.80418,1.90801,-0.0200987,0.0111271,0.457003,0.248549,0,3.5,0,12389,49.586,24.17,11984.9
4721051095,0.634772,2.223,125.779,0.039069,-0.00402204,0.97005,-2.84206,1.9247,-0.00907926,-0.0677461,0.532575,0.111841,0,3.5,0,12389,49.586,24.17,11984.9
4721151427,0.634772,2.223,125.779,0.0375078,-0.00687337,0.969608,-2.8667,1.94784,-0.00615922,0.0878715,0.508519,-0.586558,0,3.5,0,12389,49.586,24.17,11984.9
4721251767,0.634772,2.223,125.776,0.0377029,-0.00913743,0.969356,-2.8783,1.96888,-0.0225021,0.149148,0.423545,0.182437,0,3.5,0,12389,49.586,24.17,11984.9
4721352108,0.634772,2.223,125.769,0.0367307,-0.00646252,0.969287,-2.89196,1.99663,-0.00144602,0.0793342,0.40856,0.133653,0,3.5,0,12389,49.586,24.17,11984.9
4721452462,0.634772,2.223,125.757,0.0332857,-0.0047553,0.969489,-2.91811,2.01829,-0.00570342,0.0364627,0.440217,-0.0890351,0,3.5,0,12389,49.586,24.17,11984.9
4721552823,0.634772,2.223,125.751,0.0245382,-0.00542433,0.970156,-2.94578,2.03267,-0.0132789,0.0147468,0.408243,0.236634,0,3.5,0,12389,49.586,24.17,11984.9
4721653192,0.634772,2.223,125.747,0.0176615,-0.006131,0.970572,-2.96547,2.05149,0.00308353,0.0196466,0.373203,0.426302,0,3.5,0,12389,49.586,24.17,11984.9
4721753544,0.634772,2.223,125.754,0.00637648,-0.00553221,0.97103,-2.99672,2.05238,0.0152458,-0.105809,0.282956,-0.00923254,0,3.5,0,12389,49.586,24.17,11984.9
4721853946,0.634772,2.223,125.758,0.00154779,-0.00683387,0.971643,-2.99501,2.05873,0.0125248,0.042412,0.0698309,0.262243,0,-2.9,0,12389,49.586,24.17,11984.9
4721954302,0.634772,2.223,125.762,-0.0340265,-0.00462497,0.974357,-2.99119,2.06512,0.0213428,0.0539595,0.109076,0.386336,0,-2.9,0,12389,49.424,26.768,13229.8
4722054661,0.634772,2.223,125.763,-0.210915,-0.000324324,0.972927,-2.94065,2.02882,0.059315,-0.0541838,-0.9947,-0.186982,0,-2.9,0,12389,49.424,26.768,13229.8
4722155025,0.634772,2.223,125.768,-0.352271,-0.000811666,0.972237,-2.71815,1.87873,0.00542119,-0.0252218,-2.69345,0.48152,0,-2.9,0,12389,49.424,26.768,13229.8
4722255342,0.634772,2.223,125.765,-0.436835,-0.00239964,0.972736,-2.39064,1.66587,-0.0414009,0.109055,-3.87345,1.01308,0,-2.9,0,12389,49.424,26.768,13229.8
4722355728,0.634772,2.223,125.766,-0.473231,-0.000575781,0.972564,-1.98138,1.3997,-0.0322393,0.0454913,-4.09924,2.52437,0,-2.9,0,12389,49.424,26.768,13229.8
4722456081,0.634772,2.223,125.764,-0.477052,0.000225902,0.97251,-1.57056,1.11438,-0.0249211,-0.0305825,-4.1582,2.4326,0,-2.9,0,12389,49.424,26.768,13229.8
4722557853,0.634772,2.223,125.744,-0.466162,0.00294155,0.971061,-1.15784,0.831,-0.0129962,0.0303551,-4.17626,2.4402,0,-2.9,0,12389,49.424,26.768,13229.8
4722658216,0.634772,2.223,125.723,-0.456708,0.00342754,0.970783,-0.764057,0.556631,-0.00154912,-0.0259623,-4.04288,2.17101,0,-2.9,0,12389,49.424,26.768,13229.8
4722758568,0.634772,2.223,125.728,-0.443981,0.00259826,0.970782,-0.37659,0.28765,0.00508156,0.00506528,-3.97707,2.02789,0,-2.9,0,12389,49.424,26.768,13229.8
4722858895,0.634772,2.223,125.735,-0.430149,-0.000854239,0.972202,-0.00736046,0.0362473,0.015388,0.0424428,-3.77742,1.89512,0,-2.9,0,12389,49.424,26.768,13229.8
4722959116,0.634772,2.223,125.744,-0.422123,-0.00320289,0.973248,0.36189,-0.200301,0.043578,0.247281,-3.81597,1.50284,0,-2.9,0,12389,49.497,24.229,11992.6
4723059351,0.634772,2.223,125.752,-0.413565,-0.00235605,0.973076,0.687247,-0.42238,0.0213901,0.0476491,-3.38768,1.36867,0,-2.9,0,12389,49.497,24.229,11992.6
4723159638,0.634772,2.223,125.761,-0.395166,-0.00289427,0.973271,1.00457,-0.652088,0.0336186,-0.0590928,-3.33045,1.49964,0,-2.9,0,12389,49.497,24.229,11992.6
4723260042,0.634772,2.223,125.776,-0.350504,-0.0042112,0.973436,1.28529,-0.867758,0.03157,-0.0664766,-3.07152,0.916676,0,-2.9,0,12389,49.497,24.229,11992.6
4723360406,0.634772,2.223,125.789,-0.302255,-0.00783643,0.973775,1.49986,-1.05282,0.0240934,-0.197187,-2.45565,0.642235,0,-2.9,0,12389,49.497,24.229,11992.6
4723460727,0.634772,2.223,125.802,-0.260798,-0.0110254,0.973696,1.67911,-1.19496,0.025247,-0.0413477,-2.10701,0.240979,0,-2.9,0,12389,49.497,24.229,11992.6
4723561043,0.634772,2.223,125.812,-0.220814,-0.0109991,0.973141,1.83108,-1.29108,0.0132794,0.18264,-1.50094,0.307934,0,-2.9,0,12389,49.497,24.229,11992.6
4723661297,0.634772,2.223,125.821,-0.193966,-0.0137033,0.973433,1.93615,-1.36617,0.0174547,0.106243,-1.15261,0.144894,0,-2.9,0,12389,49.497,24.229,11992.6
4723761545,0.634772,2.223,125.82,-0.172662,-0.014456,0.972805,2.04433,-1.40645,-0.0241577,0.35774,-0.887502,0.811266,0,-2.9,0,12389,49.497,24.229,11992.6
4723861828,0.634772,2.223,125.82,-0.153827,-0.00908126,0.971738,2.13301,-1.4524,0.00714819,0.137425,-0.890409,-0.202957,0,-1.1,0,12389,49.497,24.229,11992.6
4723962141,0.634772,2.223,125.828,-0.117172,-0.00809011,0.96879,2.19519,-1.48429,0.0129019,0.167536,-0.605483,0.0719061,0,-1.1,0,12389,49.497,24.229,11992.6
4724062488,0.634772,2.223,125.836,0.0294152,-0.0036659,0.968702,2.21494,-1.4946,0.0549184,0.0456999,0.112624,0.433283,0,-1.1,0,12389,49.464,25.344,12536.2
4724162843,0.634772,2.223,125.851,0.140522,-0.00272344,0.969731,2.08239,-1.41009,0.057561,0.0435436,1.69662,-0.379873,0,-1.1,0,12389,49.464,25.344,12536.2
4724263173,0.634772,2.223,125.858,0.18,-0.00280197,0.969887,1.87717,-1.2717,0.0115026,0.10832,2.44542,-0.0940027,0,-1.1,0,12389,49.464,25.344,12536.2
4724363551,0.634772,2.223,125.856,0.176713,0.000694476,0.96878,1.67622,-1.09195,-0.024997,0.351305,2.49148,0.512266,0,-1.1,0,12389,49.464,25.344,12536.2
4724463920,0.634772,2.223,125.849,0.14474,0.0110246,0.96954,1.47866,-0.937133,-0.0423938,0.18436,2.22743,0.418799,0,-1.1,0,12389,49.464,25.344,12536.2
4724564306,0.634772,2.223,125.835,0.107671,0.0219402,0.969649,1.31918,-0.811543,-0.063907,0.121943,1.82138,0.570276,0,-1.1,0,12389,49.464,25.344,12536.2
4724664636,0.634772,2.223,125.817,0.0720234,0.024737,0.968726,1.16367,-0.742458,-0.0697424,-0.258116,1.38278,1.23691,0,-1.1,0,12389,49.464,25.344,12536.2
4724764976,0.634772,2.223,125.806,0.0348696,0.0164235,0.968199,1.03887,-0.68216,-0.0616109,-0.0905,1.12104,-0.4084,0,-1.1,0,12389,49.464,25.344,12536.2
4724865365,0.634772,2.223,125.799,-0.000868593,0.00636277,0.96857,0.954769,-0.635721,-0.0878171,-0.0638414,0.660061,0.118269,0,-1.1,0,12389,49.464,25.344,12536.2
4724965730,0.634772,2.223,125.8,-0.0257708,-0.0032078,0.968858,0.904146,-0.615403,-0.0421797,-0.0435108,0.269123,-0.435004,0,-1.1,0,12389,49.464,25.344,12536.2
4725066069,0.634772,2.223,125.81,-0.0427652,-0.00885866,0.969593,0.867465,-0.583786,-0.0492124,0.0487794,0.291711,-0.208834,0,-1.1,0,12389,49.359,28.381,14008.6
4725166423,0.634772,2.223,125.817,-0.056704,-0.011569,0.970432,0.841314,-0.570422,-0.00876974,0.113499,0.0433077,-0.605,0,-1.1,0,12389,49.359,28.381,14008.6
4725266780,0.634772,2.223,125.83,-0.0675107,-0.0113276,0.971284,0.826265,-0.547569,-0.0311035,0.135506,0.0431055,-0.281269,0,-1.1,0,12389,49.359,28.381,14008.6
4725367154,0.634772,2.223,125.844,-0.0732442,-0.0111254,0.971146,0.829817,-0.531589,-0.0299654,0.314858,-0.138547,-0.00758866,0,-1.1,0,12389,49.359,28.381,14008.6
4725467504,0.634772,2.223,125.859,-0.0764142,-0.00789081,0.97113,0.850494,-0.517104,-0.0103418,0.233216,-0.17826,-0.0717603,0,-1.1,0,12389,49.359,28.381,14008.6
4725567865,0.634772,2.223,125.859,-0.0790219,-0.00250085,0.971119,0.858988,-0.502615,-0.021648,0.190377,-0.137952,-0.0369982,0,-1.1,0,12389,49.359,28.381,14008.6
4725668271,0.634772,2.223,125.854,-0.0782458,-0.00308296,0.97151,0.881287,-0.49565,-0.0249119,0.161691,-0.203491,-0.210774,0,-1.1,0,12389,49.359,28.381,14008.6
4725768642,0.634772,2.223,125.847,-0.0769505,-0.0019968,0.971742,0.888731,-0.502874,-0.0273773,0.150095,-0.251784,-0.188101,0,-1.1,0,12389,49.359,28.381,14008.6
4725869063,0.634772,2.223,125.841,-0.0734403,-0.00438641,0.971248,0.908719,-0.496026,-0.0306617,0.305733,-0.123312,0.183765,0,2.2,0,12389,49.359,28.381,14008.6
4725969393,0.634772,2.223,125.832,-0.0465372,-0.00176256,0.968295,0.935516,-0.495403,-0.0494461,0.0771809,-0.185785,0.409036,0,2.2,0,12389,49.359,28.381,14008.6
4726069761,0.634772,2.223,125.821,0.140368,0.00508949,0.969481,0.900887,-0.461856,0.00729008,0.0298291,0.915467,0.135455,0,2.2,0,12360,49.523,23.995,11883
4726170094,0.634772,2.223,125.812,0.314599,0.0107135,0.97206,0.656301,-0.287353,-0.029156,0.00913607,3.16005,0.649201,0,2.2,0,12360,49.523,23.995,11883
4726270427,0.634772,2.223,125.801,0.410986,0.0146977,0.973443,0.30838,-0.0483041,-0.0739585,0.0807206,3.96915,1.56322,0,2.2,0,12360,49.523,23.995,11883
4726370777,0.634773,2.223,125.795,0.444601,0.0224896,0.976167,-0.12353,0.230895,-0.102259,-0.106365,4.66835,2.283,0,2.2,0,12360,49.523,23.995,11883
4726471108,0.634773,2.223,125.786,0.398513,0.033038,0.978879,-0.575047,0.515002,-0.0722507,-0.187035,4.66114,2.20739,0,2.2,0,12360,49.523,23.995,11883
4726571395,0.634773,2.223,125.778,0.305131,0.03512,0.976903,-0.949089,0.756759,-0.0573744,-0.0180362,4.12858,1.06306,0,2.2,0,12360,49.523,23.995,11883
4726671773,0.634772,2.223,125.775,0.209918,0.0372892,0.975638,-1.21818,0.911966,-0.0324094,-0.0894743,2.75785,1.13023,0,2.2,0,12360,49.523,23.995,11883
4726772119,0.634772,2.223,125.78,0.141761,0.0333623,0.973833,-1.42438,1.01902,0.00818652,-0.258889,2.10568,0.417631,0,2.2,0,12360,49.523,23.995,11883
4726872474,0.634772,2.223,125.79,0.088134,0.0210348,0.972331,-1.57457,1.08241,0.0129181,-0.269487,1.42074,-0.0352471,0,2.2,0,12360,49.523,23.995,11883
4726972808,0.634772,2.223,125.796,0.0509963,0.00732157,0.971743,-1.66108,1.14541,0.032246,0.0732777,0.990898,0.118307,0,2.2,0,12360,49.523,23.995,11883
4727073157,0.634772,2.223,125.804,0.0297628,0.00181988,0.971525,-1.71537,1.19342,0.0106002,0.0490555,0.631224,-0.273824,0,2.2,0,12316,49.514,23.116,11445.7
4727173496,0.634772,2.223,125.803,0.0193233,-0.00310292,0.971319,-1.75313,1.23571,-0.0117043,0.162489,0.440786,0.325585,0,2.2,0,12316,49.514,23.116,11445.7
4727273815,0.634772,2.223,125.799,0.0126914,-0.00245666,0.970791,-1.77358,1.26929,-0.0156393,0.15785,0.35125,-0.0400913,0,2.2,0,12316,49.514,23.116,11445.7
4727374172,0.634772,2.223,125.788,0.0105607,0.000139124,0.970362,-1.78605,1.30352,-0.00532892,0.242021,0.28811,0.154696,0,2.2,0,12316,49.514,23.116,11445.7
4727474499,0.634772,2.223,125.775,0.0123733,0.00409386,0.970207,-1.80111,1.33422,-0.0267921,0.119084,0.317443,-0.105508,0,2.2,0,12316,49.514,23.116,11445.7
4727574827,0.634772,2.223,125.758,0.00984579,0.00473808,0.970015,-1.82047,1.36062,-0.0067379,0.13834,0.370294,0.160997,0,2.2,0,12316,49.514,23.116,11445.7
4727675177,0.634772,2.223,125.744,0.0106398,0.00713652,0.969989,-1.83439,1.37676,-0.0047665,0.0519184,0.301056,0.0612177,0,2.2,0,12316,49.514,23.116,11445.7
4727775532,0.634772,2.223,125.738,0.00994339,0.00713352,0.969687,-1.85334,1.40055,0.0014231,0.127195,0.406817,-0.0812463,0,2.2,0,12316,49.514,23.116,11445.7
4727875998,0.634772,2.223,125.739,0.00477302,0.00843117,0.970003,-1.8589,1.41095,0.00940153,0.0529609,0.266038,0.137575,0,-1.5,0,12316,49.514,23.116,11445.7
4727976356,0.634772,2.223,125.744,-0.0357669,0.00819317,0.971831,-1.87183,1.42483,0.0193664,0.0520328,0.395689,0.3877,0,-1.5,0,12316,49.514,23.116,11445.7
4728076708,0.634772,2.223,125.751,-0.210453,0.00579765,0.969521,-1.80632,1.40025,0.0648415,0.201857,-0.895688,0.0927997,0,-1.5,0,12316,49.514,23.116,11445.7
4728177016,0.634772,2.223,125.76,-0.353519,0.00511635,0.969416,-1.59281,1.27331,0.00351086,0.159549,-2.5021,0.21226,0,-1.5,0,12316,49.498,23.116,11442
4728277345,0.634772,2.223,125.764,-0.436661,0.00737637,0.969062,-1.26408,1.06848,-0.013469,0.25411,-3.35746,1.8454,0,-1.5,0,12316,49.498,23.116,11442
4728377694,0.634772,2.223,125.762,-0.472897,0.014699,0.966985,-0.876212,0.804833,-0.0232894,0.0482279,-4.03929,1.97865,0,-1.5,0,12316,49.498,23.116,11442
4728478036,0.634772,2.223,125.763,-0.474867,0.022018,0.964453,-0.472599,0.505187,-0.0168373,-0.111839,-4.11238,2.48722,0,-1.5,0,12316,49.498,23.116,11442
4728578376,0.634772,2.223,125.74,-0.430533,0.0249633,0.964118,-0.0755464,0.202392,-0.0104802,-0.178397,-4.14565,2.25227,0,-1.5,0,12316,49.498,23.116,11442
4728678700,0.634772,2.223,125.716,-0.363418,0.0260125,0.964533,0.25503,-0.0558243,0.0108325,-0.188847,-3.499,1.48025,0,-1.5,0,12316,49.498,23.116,11442
4728779062,0.634772,2.223,125.716,-0.296113,0.0225166,0.966386,0.504617,-0.267814,0.0285197,-0.210893,-2.66002,1.11635,0,-1.5,0,12316,49.498,23.116,11442
4728879399,0.634772,2.223,125.722,-0.237216,0.0165791,0.967851,0.701658,-0.432883,0.0337465,-0.155374,-2.08287,0.743847,0,-1.5,0,12316,49.498,23.116,11442
4728979742,0.634772,2.223,125.723,-0.189566,0.014498,0.968222,0.84785,-0.557968,0.0344715,-0.168445,-1.605,0.239513,0,-1.5,0,12316,49.498,23.116,11442
4729080100,0.634772,2.223,125.72,-0.154306,0.0110986,0.968508,0.959933,-0.653712,0.0278457,0.00580731,-1.22847,-0.0179279,0,-1.5,0,12316,49.498,23.116,11442
4729180464,0.634772,2.223,125.725,-0.128024,0.0083103,0.968678,1.03265,-0.739632,0.0231349,-0.232023,-0.79152,0.215068,0,-1.5,0,12316,49.387,26.535,13104.8
4729280792,0.634772,2.223,125.734,-0.108177,0.00411066,0.969341,1.09397,-0.808588,0.0340557,-0.115187,-0.632968,0.330743,0,-1.5,0,12316,49.387,26.535,13104.8
4729381191,0.634772,2.223,125.739,-0.0951422,0.00433921,0.969315,1.13026,-0.848041,0.025212,-0.0662451,-0.372352,-0.169086,0,-1.5,0,12316,49.387,26.535,13104.8
4729481554,0.634772,2.223,125.744,-0.0868448,0.00520941,0.969628,1.14844,-0.886909,0.0386433,-0.142563,-0.185008,0.162876,0,-1.5,0,12316,49.387,26.535,13104.8
4729581915,0.634772,2.223,125.752,-0.0787054,0.00276522,0.970506,1.16763,-0.924315,0.00782855,-0.136685,-0.25255,-0.352391,0,-1.5,0,12316,49.387,26.535,13104.8
4729682262,0.634772,2.223,125.757,-0.0690035,-0.0021756,0.970946,1.1795,-0.944617,0.00305203,-0.0378483,-0.107559,0.190368,0,-1.5,0,12316,49.387,26.535,13104.8
4729782616,0.634772,2.223,125.757,-0.0655863,-0.00789139,0.971353,1.1854,-0.945194,0.0102185,0.0636076,0.0154216,0.010731,0,-1.5,0,12316,49.387,26.535,13104.8
4729883022,0.634772,2.223,125.763,-0.0633398,-0.0132919,0.971582,1.19288,-0.936707,0.00608919,0.168157,0.045039,0.187897,0,3.5,0,12316,49.387,26.535,13104.8
4729983372,0.634772,2.223,125.766,-0.0411782,-0.0147328,0.968912,1.19749,-0.91469,0.00786797,0.0515435,0.199503,-0.105486,0,3.5,0,12316,49.387,26.535,13104.8
4730083724,0.634772,2.223,125.765,0.156352,-0.0126789,0.966969,1.18027,-0.881995,0.0676129,0.18535,0.568713,0.487843,0,3.5,0,12316,49.387,26.535,13104.8
4730184104,0.634772,2.223,125.771,0.333162,-0.0115013,0.967172,0.939076,-0.7057,0.0604965,0.120368,3.09996,0.289962,0,3.5,0,12316,49.361,26.89,13273.2
4730285824,0.634772,2.223,125.777,0.433763,-0.00788943,0.96833,0.576651,-0.44631,-0.0157902,0.0874231,4.29309,1.39891,0,3.5,0,12316,49.361,26.89,13273.2
4730390926,0.634772,2.223,125.765,0.486603,0.0057267,0.973377,0.0384281,-0.0750853,-0.0586912,-0.017856,4.8664,2.42261,0,3.5,0,12316,49.361,26.89,13273.2
4730491284,0.634772,2.223,125.752,0.498319,0.0161357,0.978141,-0.471607,0.247712,-0.0812965,-0.189906,5.2195,2.68163,0,3.5,0,12316,49.361,26.89,13273.2
4730591626,0.634772,2.223,125.743,0.482575,0.016746,0.978041,-0.990687,0.576957,-0.0691165,-0.185996,5.25108,2.72385,0,3.5,0,12316,49.361,26.89,13273.2
4730691950,0.634772,2.223,125.734,0.439984,0.0161856,0.97708,-1.4841,0.890972,-0.0464901,-0.214264,4.81797,2.93739,0,3.5,0,12316,49.361,26.89,13273.2
4730792286,0.634772,2.223,125.733,0.353162,0.0078118,0.973712,-1.9155,1.16019,-0.00268597,-0.245251,4.27249,1.91691,0,3.5,0,12316,49.361,26.89,13273.2
4730892621,0.634772,2.223,125.741,0.262087,-0.00390912,0.970822,-2.23014,1.39215,0.028815,0.153419,3.34963,1.26191,0,3.5,0,12316,49.361,26.89,13273.2
4730993766,0.634772,2.223,125.749,0.187262,-0.00839736,0.970423,-2.44626,1.55921,0.0419907,0.140177,2.35458,0.566137,0,3.5,0,12316,49.361,26.89,13273.2
4731095561,0.634772,2.223,125.766,0.12815,-0.0113781,0.970066,-2.59929,1.69326,0.044263,0.185823,1.74971,0.112757,0,3.5,0,12316,49.361,26.89,13273.2
4731195962,0.634772,2.223,125.785,0.0881634,-0.0115795,0.96944,-2.70871,1.80751,0.0577872,0.292384,1.28188,-0.108853,0,3.5,0,12316,49.361,26.89,13273.2
4731296455,0.634772,2.223,125.792,0.0614021,-0.00799777,0.9694,-2.78458,1.88526,0.0350969,0.174295,0.929519,-0.230416,0,3.5,0,12316,49.361,26.89,13273.2
4731396803,0.634772,2.223,125.797,0.0434605,-0.00634471,0.969493,-2.83642,1.94601,0.0232952,0.142031,0.641464,-0.110777,0,3.5,0,12316,49.361,26.89,13273.2
4731497166,0.634772,2.223,125.798,0.0309857,-0.00351356,0.969461,-2.87045,1.99451,0.0158213,0.132532,0.436562,-0.176408,0,3.5,0,12316,49.361,26.89,13273.2
4731597481,0.634772,2.223,125.796,0.022397,-0.00105723,0.969659,-2.89296,2.03026,0.00484053,0.106459,0.380109,-0.0672696,0,3.5,0,12316,49.361,26.89,13273.2
4731697840,0.634772,2.223,125.783,0.0186502,-0.00137289,0.969882,-2.90725,2.05673,-0.00819122,0.0933133,0.308397,-0.220749,0,3.5,0,12316,49.263,28.508,14043.9
4731798195,0.634772,2.223,125.77,0.0169997,-0.00148084,0.969867,-2.91281,2.08062,-0.0092145,0.10507,0.24037,0.136189,0,3.5,0,12316,49.263,28.508,14043.9
4731898614,0.634772,2.223,125.76,0.0145198,0.00109914,0.970315,-2.90866,2.1002,-0.00952658,0.162842,0.16057,-0.0756088,0,-3.1,0,12316,49.263,28.508,14043.9
4731999019,0.634772,2.223,125.752,-0.00259686,0.00374739,0.972511,-2.90918,2.11871,-0.00437262,0.102951,0.300455,0.298655,0,-3.1,0,12316,49.263,28.508,14043.9
4732099374,0.634772,2.223,125.749,-0.173057,0.00444251,0.971138,-2.89595,2.11677,0.0517965,0.0523088,-0.251499,0.263455,0,-3.1,0,12316,49.263,28.508,14043.9
4732199750,0.634772,2.223,125.751,-0.332409,0.000671625,0.971203,-2.68934,2.00345,0.016881,0.11002,-2.54249,-0.306721,0,-3.1,0,12316,49.263,28.508,14043.9
4732300827,0.634772,2.223,125.752,-0.424189,-2.77013e-05,0.97175,-2.36881,1.79936,-0.0175678,0.119471,-3.4175,1.46831,0,-3.1,0,12316,49.263,28.508,14043.9
4732407729,0.634772,2.223,125.761,-0.462509,0.000366822,0.972315,-1.88863,1.48084,-0.0164058,0.116488,-4.17668,1.94264,0,-3.1,0,12316,49.263,28.508,14043.9
4732510997,0.634772,2.223,125.745,-0.467234,0.00396835,0.971071,-1.4595,1.20442,-0.0187852,0.130163,-4.30835,2.21751,0,-3.1,0,12316,49.263,28.508,14043.9
4732611360,0.634771,2.223,125.722,-0.458457,0.00853054,0.969201,-1.04298,0.93038,-0.0192715,0.211246,-4.22685,2.05391,0,-3.1,0,12316,49.263,28.508,14043.9
4732711697,0.634771,2.223,125.719,-0.448663,0.0138387,0.966533,-0.636299,0.650422,-0.00224623,0.0243521,-3.92735,2.47358,0,-3.1,0,12316,49.339,26.89,13267.3
4732812089,0.634772,2.223,125.717,-0.43838,0.018824,0.964376,-0.233533,0.375255,0.0179379,0.0471783,-3.95046,2.33588,0,-3.1,0,12316,49.339,26.89,13267.3
4732912435,0.634772,2.223,125.714,-0.429404,0.0247829,0.962489,0.125428,0.103642,0.012861,-0.174498,-3.73378,1.83021,0,-3.1,0,12316,49.339,26.89,13267.3
4733012963,0.634772,2.223,125.709,-0.424706,0.0303374,0.960589,0.475314,-0.164632,0.000290075,-0.203125,-3.61437,1.86026,0,-3.1,0,12316,49.339,26.89,13267.3
4733113367,0.634772,2.223,125.709,-0.417743,0.0310635,0.960954,0.805437,-0.440045,0.0193101,-0.311389,-3.34766,2.08199,0,-3.1,0,12316,49.339,26.89,13267.3
4733214793,0.634772,2.223,125.714,-0.404771,0.0236887,0.964409,1.11787,-0.702642,0.0343692,-0.264003,-3.3447,1.71833,0,-3.1,0,12316,49.339,26.89,13267.3
4733315514,0.634772,2.223,125.723,-0.358003,0.0146848,0.967946,1.41424,-0.937422,0.0537346,-0.141707,-3.05555,1.46833,0,-3.1,0,12316,49.339,26.89,13267.3
4733415908,0.634772,2.223,125.737,-0.303146,0.00731648,0.970597,1.64851,-1.12696,0.0547341,-0.10395,-2.47991,0.857358,0,-3.1,0,12316,49.339,26.89,13267.3
4733517805,0.634772,2.223,125.744,-0.257273,0.000282913,0.972501,1.84195,-1.2682,0.0608142,0.016559,-2.03797,0.597367,0,-3.1,0,12316,49.339,26.89,13267.3
4733621993,0.634772,2.223,125.753,-0.220783,-0.00314682,0.97323,1.99868,-1.37633,0.0697765,0.118763,-1.75638,-0.117813,0,-3.1,0,12316,49.339,26.89,13267.3
4733722361,0.634772,2.223,125.765,-0.189791,-0.00560763,0.973872,2.11474,-1.45709,0.0269033,0.130218,-1.41789,-0.558134,0,-3.1,0,12316,49.339,26.015,12835.5
4733822733,0.634772,2.223,125.775,-0.162275,-0.00786564,0.973498,2.22269,-1.51377,0.0316446,0.185263,-1.00819,0.39503,0,-3.1,0,12316,49.339,26.015,12835.5
4733923152,0.634772,2.223,125.78,-0.142114,-0.00997071,0.97328,2.28453,-1.55135,0.0346498,0.164839,-0.706541,-0.0627005,0,-1.6,0,12316,49.339,26.015,12835.5
4734023480,0.634772,2.223,125.783,-0.110071,-0.00708989,0.970091,2.33796,-1.57314,0.0286683,0.208395,-0.537127,-0.0580901,0,-1.6,0,12316,49.339,26.015,12835.5
4734123866,0.634772,2.223,125.789,0.00337426,-0.00432021,0.969405,2.34932,-1.59601,0.0688669,0.0344529,0.0475455,0.242813,0,-1.6,0,12316,49.339,26.015,12835.5
4734224289,0.634772,2.223,125.796,0.0936089,-0.0026835,0.971007,2.24306,-1.5326,0.0631379,0.0267685,1.25781,-0.364535,0,-1.6,0,12316,49.339,26.015,12835.5
4734324637,0.634772,2.223,125.794,0.133339,0.000450306,0.971389,2.08165,-1.43526,0.0213008,-0.120607,1.95134,-0.53164,0,-1.6,0,12316,49.339,26.015,12835.5
4734424963,0.634772,2.223,125.786,0.136431,0.00654909,0.970859,1.90842,-1.3052,-0.00127712,0.120057,2.01098,0.645412,0,-1.6,0,12316,49.339,26.015,12835.5
4734525248,0.634772,2.223,125.781,0.11054,0.00852259,0.969015,1.72994,-1.18395,-0.0155206,0.00223883,1.97276,0.0762416,0,-1.6,0,12316,49.339,26.015,12835.5
4734625607,0.634772,2.223,125.775,0.0772333,0.0119725,0.968298,1.59271,-1.06355,-0.0472392,0.19707,1.63614,-0.147446,0,-1.6,0,12316,49.339,26.015,12835.5
4734725965,0.634772,2.223,125.762,0.0418183,0.0131079,0.967456,1.4542,-0.978428,-0.0527824,-0.031948,1.3182,0.73226,0,-1.6,0,12272,49.258,28.576,14076
4734826317,0.634772,2.223,125.751,0.00728102,0.0050029,0.968244,1.35561,-0.934111,-0.0389591,-0.029737,0.824788,0.317577,0,-1.6,0,12272,49.258,28.576,14076
4734926678,0.634772,2.223,125.756,-0.0205426,-0.00444841,0.969067,1.29577,-0.875652,-0.028137,0.163811,0.548705,0.398627,0,-1.6,0,12272,49.258,28.576,14076
4735027024,0.634772,2.223,125.766,-0.043351,-0.0138536,0.970452,1.2632,-0.837783,-0.00854384,0.185095,0.306477,0.208781,0,-1.6,0,12272,49.258,28.576,14076
4735127438,0.634772,2.223,125.78,-0.0620043,-0.0158209,0.972427,1.25374,-0.782179,0.00623325,0.377062,0.0957886,-0.0286895,0,-1.6,0,12272,49.258,28.576,14076
4735227805,0.634772,2.223,125.8,-0.0704697,-0.0117661,0.972776,1.24971,-0.753713,0.0107645,0.263372,0.0129575,-0.194624,0,-1.6,0,12272,49.258,28.576,14076
4735328131,0.634772,2.223,125.822,-0.0793524,-0.00587155,0.97305,1.24948,-0.731293,0.00675642,0.220395,-0.00474497,0.237485,0,-1.6,0,12272,49.258,28.576,14076
4735428452,0.634772,2.223,125.843,-0.0876475,-0.000779972,0.972443,1.27409,-0.711,0.0210157,0.387817,-0.270906,-0.471237,0,-1.6,0,12272,49.258,28.576,14076
4735528855,0.634772,2.223,125.851,-0.0902108,0.00866636,0.972035,1.2893,-0.714336,-0.00547755,0.0747578,-0.239253,-0.108067,0,-1.6,0,12272,49.258,28.576,14076
4735629134,0.634772,2.223,125.856,-0.0882784,0.0132066,0.971315,1.30156,-0.719526,-0.0164784,0.0574102,-0.248838,-0.347428,0,-1.6,0,12272,49.258,28.576,14076
4735729456,0.634772,2.223,125.856,-0.0872282,0.0155978,0.971099,1.31385,-0.730891,-0.043171,0.0247359,-0.21503,-0.162133,0,-1.6,0,12272,49.299,27.069,13344.7
4735829819,0.634772,2.223,125.849,-0.0838018,0.0167235,0.9714,1.32341,-0.731374,-0.0247688,0.0881072,-0.119777,0.143585,0,-1.6,0,12272,49.299,27.069,13344.7
4735930190,0.634772,2.223,125.849,-0.0833967,0.0188792,0.971171,1.33788,-0.740511,-0.0384726,-0.0240197,-0.189,-0.11301,0,4.5,0,12272,49.299,27.069,13344.7
4736030525,0.634772,2.223,125.844,-0.050339,0.0187866,0.968759,1.34418,-0.751037,-0.0314386,-0.0227526,-0.123646,0.595192,0,4.5,0,12272,49.299,27.069,13344.7
4736130884,0.634772,2.223,125.839,0.155896,0.0160435,0.971586,1.30202,-0.720619,0.0376498,-0.0333643,0.937002,0.301664,0,4.5,0,12272,49.299,27.069,13344.7
4736231213,0.634772,2.223,125.838,0.321437,0.0126306,0.972824,1.05783,-0.544771,-0.010535,0.0785367,3.24043,0.114921,0,4.5,0,12272,49.299,27.069,13344.7
4736331598,0.634772,2.223,125.831,0.413174,0.0102829,0.972566,0.70579,-0.294607,-0.0804119,0.0647607,4.22131,1.37016,0,4.5,0,12272,49.299,27.069,13344.7
4736431937,0.634772,2.223,125.82,0.45719,0.0105338,0.972399,0.272254,-0.000458062,-0.101038,-0.0222574,4.78231,2.08933,0,4.5,0,12272,49.299,27.069,13344.7
4736532317,0.634772,2.223,125.819,0.467457,0.0112726,0.972192,-0.190497,0.314556,-0.104539,-0.0070939,4.88609,2.79985,0,4.5,0,12272,49.299,27.069,13344.7
4736632651,0.634772,2.223,125.815,0.463612,0.0127084,0.972201,-0.662179,0.642863,-0.0770291,0.0471813,4.93861,2.75065,0,4.5,0,12272,49.299,27.069,13344.7
4736733046,0.634772,2.223,125.808,0.451053,0.0159396,0.973026,-1.12222,0.955827,-0.0623807,-0.00183438,4.80157,2.54415,0,4.5,0,12272,49.299,27.069,13344.7
4736833375,0.634772,2.223,125.805,0.432488,0.0205719,0.974605,-1.57102,1.26294,-0.0441372,0.00313941,4.7525,2.29963,0,4.5,0,12272,49.469,22.444,11102.8
4736933645,0.634772,2.223,125.803,0.409017,0.0244628,0.975556,-2.00614,1.54476,-0.0209945,-0.19954,4.54585,2.20305,0,4.5,0,12272,49.469,22.444,11102.8
4737034007,0.634772,2.223,125.799,0.3503,0.024291,0.974811,-2.40005,1.78815,-0.0239595,-0.203347,3.9719,1.64007,0,4.5,0,12272,49.469,22.444,11102.8
4737134317,0.634772,2.223,125.796,0.284409,0.0236824,0.974382,-2.72228,2.00169,-0.0289791,-0.0469231,3.43827,0.966367,0,4.5,0,12272,49.469,22.444,11102.8
4737234610,0.634772,2.223,125.79,0.219997,0.0244183,0.974706,-2.97214,2.17422,0.00881134,-0.00819719,2.59048,0.810221,0,4.5,0,12272,49.469,22.444,11102.8
4737334997,0.634772,2.223,125.797,0.166742,0.022686,0.974259,-3.16514,2.29204,0.00693337,-0.106477,1.91977,0.565575,0,4.5,0,12272,49.469,22.444,11102.8
4737435366,0.634772,2.223,125.801,0.122714,0.0202591,0.973886,-3.30976,2.38794,0.0103095,-0.0742384,1.46773,0.252727,0,4.5,0,12272,49.469,22.444,11102.8
4737535794,0.634772,2.223,125.813,0.0936253,0.0196515,0.973965,-3.4108,2.46077,0.0102698,-0.0607773,1.06612,0.105044,0,4.5,0,12272,49.469,22.444,11102.8
4737636253,0.634772,2.223,125.82,0.0764407,0.0193148,0.974228,-3.48647,2.51303,0.00860202,-0.065014,0.777427,-0.189341,0,4.5,0,12272,49.469,22.444,11102.8
4737738140,0.634772,2.223,125.816,0.0645171,0.0208219,0.974214,-3.53963,2.56019,-0.00231948,0.0206274,0.662783,-0.0654597,0,4.5,0,12272,49.469,22.444,11102.8
4737838510,0.634772,2.223,125.82,0.0553786,0.024725,0.974323,-3.58349,2.5937,-0.00199306,-0.0502599,0.561872,-0.213941,0,4.5,0,12272,49.402,25.277,12487.3
4737938905,0.634772,2.223,125.821,0.0511249,0.0275089,0.974389,-3.61309,2.61471,-0.00856446,-0.0548511,0.396255,0.0388634,0,-1,0,12272,49.402,25.277,12487.3
4738039214,0.634772,2.223,125.818,0.0344122,0.0288409,0.9758,-3.64532,2.62329,-0.00722303,-0.114427,0.416915,0.0433455,0,-1,0,12272,49.402,25.277,12487.3
4738139568,0.634772,2.223,125.819,-0.151472,0.0270554,0.971628,-3.66218,2.62726,0.0368706,-0.137148,-0.0186194,0.0840436,0,-1,0,12272,49.402,25.277,12487.3
4738239908,0.634772,2.223,125.824,-0.333193,0.0227079,0.96776,-3.46745,2.49908,0.0311242,-0.120732,-2.56561,-0.242714,0,-1,0,12272,49.402,25.277,12487.3
4738340303,0.634771,2.223,125.826,-0.440443,0.0166717,0.96774,-3.15174,2.2766,-0.0508311,-0.0508438,-3.8688,0.677063,0,-1,0,12272,49.402,25.277,12487.3
4738440665,0.634771,2.223,125.817,-0.48877,0.0142133,0.967903,-2.72325,1.98853,-0.06474,-0.0154117,-4.36149,2.51463,0,-1,0,12272,49.402,25.277,12487.3
4738541015,0.634771,2.223,125.805,-0.499995,0.0113406,0.968957,-2.2657,1.67022,-0.0583999,-0.0187442,-4.61849,2.63814,0,-1,0,12272,49.402,25.277,12487.3
4738641318,0.634771,2.223,125.796,-0.492759,0.0129927,0.967718,-1.80169,1.35429,-0.0468329,0.020622,-4.64336,2.65819,0,-1,0,12272,49.402,25.277,12487.3
4738741690,0.634771,2.223,125.779,-0.4787,0.0177489,0.965734,-1.35571,1.03637,-0.0381299,-0.036068,-4.45778,2.67557,0,-1,0,12272,49.402,25.277,12487.3
4738842051,0.634771,2.223,125.76,-0.4566,0.0224295,0.963866,-0.92525,0.730674,-0.0148287,-0.0370907,-4.3423,2.343,0,-1,0,12256,49.27,28.324,13955.2
4738942366,0.634771,2.223,125.758,-0.395571,0.0248152,0.964296,-0.530344,0.44251,-0.00778453,-0.0672704,-3.97022,1.91135,0,-1,0,12256,49.27,28.324,13955.2
4739042709,0.634771,2.223,125.759,-0.327528,0.0261453,0.965122,-0.207035,0.209276,0.0110353,-0.0723233,-3.28929,1.40458,0,-1,0,12256,49.27,28.324,13955.2
4739143064,0.634771,2.223,125.758,-0.262831,0.0208994,0.967808,0.0533155,0.031408,0.0152608,0.146522,-2.6177,0.74701,0,-1,0,12256,49.27,28.324,13955.2
4739243419,0.634771,2.223,125.76,-0.210142,0.0165301,0.969553,0.242243,-0.0978683,0.0115084,0.073975,-1.88645,0.257313,0,-1,0,12256,49.27,28.324,13955.2
4739344650,0.634771,2.223,125.779,-0.168688,0.0132417,0.970402,0.402313,-0.194843,0.01782,0.175206,-1.5283,0.246247,0,-1,0,12256,49.27,28.324,13955.2
4739446989,0.634771,2.223,125.797,-0.135479,0.0135533,0.970532,0.520822,-0.265052,0.0200002,0.143057,-1.08146,0.0519252,0,-1,0,12256,49.27,28.324,13955.2
4739547344,0.634771,2.223,125.802,-0.113056,0.0140755,0.970444,0.616014,-0.323484,0.0155582,0.166031,-0.733183,0.012536,0,-1,0,12256,49.27,28.324,13955.2
4739647710,0.634771,2.223,125.807,-0.0969913,0.016385,0.969807,0.669709,-0.367208,0.00873918,0.0355244,-0.555703,0.0397082,0,-1,0,12256,49.27,28.324,13955.2
4739748102,0.634771,2.223,125.82,-0.0844687,0.0158944,0.969766,0.707934,-0.397687,0.0170719,0.0599089,-0.402963,0.36071,0,-1,0,12256,49.27,28.324,13955.2
4739848439,0.634772,2.223,125.835,-0.0762083,0.0153369,0.969148,0.728372,-0.412853,0.006827,0.00917356,-0.243514,-0.38588,0,-1,0,12256,49.247,27.84,13710.4
4739948842,0.634772,2.223,125.836,-0.0718651,0.0163382,0.968796,0.729986,-0.42956,0.00948181,-0.0810721,-0.231393,-0.991568,0,2.1,0,12256,49.247,27.84,13710.4
4740049239,0.634772,2.223,125.838,-0.05036,0.0168197,0.966522,0.739336,-0.445435,-0.0101343,0.00701242,-0.305563,0.503541,0,2.1,0,12256,49.247,27.84,13710.4
4740149600,0.634772,2.223,125.839,0.143786,0.0175757,0.969476,0.693815,-0.436869,0.0697501,-0.087517,0.682588,0.311938,0,2.1,0,12256,49.247,27.84,13710.4
4740250009,0.634772,2.223,125.854,0.318232,0.015005,0.972669,0.451764,-0.284378,0.0120576,-0.0710246,3.05568,-0.36674,0,2.1,0,12256,49.247,27.84,13710.4
4740350373,0.634772,2.223,125.851,0.418449,0.0121971,0.973026,0.0974774,-0.0475027,-0.0519494,0.0660246,4.11635,1.24976,0,2.1,0,12256,49.247,27.84,13710.4
4740450756,0.634772,2.223,125.838,0.420334,0.0083743,0.971785,-0.327727,0.236651,-0.0918607,0.0548721,4.53631,1.89922,0,2.1,0,12256,49.247,27.84,13710.4
4740551512,0.634772,2.223,125.827,0.361039,0.00793284,0.972316,-0.744594,0.500233,-0.0685379,-0.0423493,4.18668,2.00895,0,2.1,0,12256,49.247,27.84,13710.4
4740651981,0.634771,2.223,125.821,0.278851,0.00970169,0.972736,-1.08619,0.724016,-0.0503288,-0.0452404,3.49132,1.39569,0,2.1,0,12256,49.247,27.84,13710.4
4740752372,0.634771,2.223,125.802,0.189666,0.0106509,0.972675,-1.35235,0.885011,-0.0195325,-0.165327,2.65617,0.570934,0,2.1,0,12256,49.247,27.84,13710.4
4740852705,0.634771,2.223,125.776,0.127841,0.0103788,0.972476,-1.52447,1.00439,-0.0231031,0.0720482,1.69133,0.467666,0,2.1,0,12256,49.264,28.736,14156.5
4740953059,0.634771,2.223,125.77,0.079136,0.0125685,0.97215,-1.66274,1.09455,-0.0131484,-0.00236126,1.21104,0.566368,0,2.1,0,12256,49.264,28.736,14156.5
4741054067,0.634771,2.223,125.771,0.04496,0.0114531,0.971517,-1.76227,1.15328,-0.00256324,0.00245364,0.775086,0.146297,0,2.1,0,12256,49.264,28.736,14156.5
4741155728,0.634771,2.223,125.752,0.0242626,0.00912127,0.970865,-1.83162,1.20255,-0.0111021,0.0385429,0.617099,-0.0126239,0,2.1,0,12256,49.264,28.736,14156.5
4741256135,0.634771,2.223,125.739,0.0109738,0.00789694,0.970469,-1.87872,1.24561,0.00407926,0.0779873,0.392822,0.0513996,0,2.1,0,12256,49.264,28.736,14156.5
4741356480,0.634771,2.223,125.747,0.00246282,0.00834246,0.97019,-1.90364,1.27447,0.00240852,0.0786962,0.173266,0.0654823,0,2.1,0,12256,49.264,28.736,14156.5
4741456843,0.634771,2.223,125.758,-0.0011902,0.00869812,0.97008,-1.92334,1.29691,0.0138428,0.0841331,0.165645,-0.0955006,0,2.1,0,12256,49.264,28.736,14156.5
4741557214,0.634771,2.223,125.75,-0.00370152,0.00901903,0.969888,-1.93341,1.31441,0.00558232,0.0539543,0.0844109,-0.18182,0,2.1,0,12256,49.264,28.736,14156.5
4741657581,0.634771,2.223,125.743,-0.00280679,0.0111386,0.969805,-1.93472,1.33256,0.0102299,0.0645523,0.0736915,0.217921,0,2.1,0,12256,49.264,28.736,14156.5
4741757927,0.634771,2.223,125.744,-0.0034377,0.0139685,0.969729,-1.93315,1.33991,0.0215975,0.0835689,-0.0219555,0.130809,0,2.1,0,12256,49.264,28.736,14156.5
4741858246,0.634771,2.223,125.746,-0.00302649,0.0173869,0.969629,-1.93745,1.35162,0.0186644,0.0502081,0.10547,-0.199344,0,2.1,0,12256,49.264,28.736,14156.5
4741958661,0.634771,2.223,125.735,-0.00545499,0.0183463,0.969746,-1.93896,1.34781,0.00301913,-0.000301353,-0.0149232,0.376828,0,3.8,0,12228,49.295,25.487,12563.8
4742059005,0.634771,2.223,125.723,0.00135112,0.0190478,0.968085,-1.94408,1.35355,0.0198367,-0.0083101,0.112001,0.0239678,0,3.8,0,12228,49.295,25.487,12563.8
4742159266,0.634771,2.223,125.722,0.112207,0.0199481,0.969751,-1.9734,1.3687,0.075387,-0.0844338,0.585135,0.187349,0,3.8,0,12228,49.295,25.487,12563.8
4742259558,0.634771,2.223,125.715,0.205288,0.0180303,0.971934,-2.10456,1.45058,0.0119017,-0.105048,1.76382,-0.15258,0,3.8,0,12228,49.295,25.487,12563.8
4742359955,0.634771,2.223,125.701,0.248198,0.0166536,0.972222,-2.30284,1.58577,-0.00751114,4.75324e-05,2.38717,0.894849,0,3.8,0,12228,49.295,25.487,12563.8
4742460268,0.634771,2.223,125.685,0.242146,0.014915,0.97189,-2.5299,1.73866,-0.00669116,0.0010512,2.64168,0.777968,0,3.8,0,12228,49.295,25.487,12563.8
4742560588,0.634771,2.223,125.678,0.213338,0.0123863,0.971188,-2.73197,1.88141,0.0197552,0.0368853,2.30512,0.924997,0,3.8,0,12228,49.295,25.487,12563.8
4742661023,0.634771,2.223,125.674,0.173067,0.00785173,0.970108,-2.90329,2.01307,0.0370335,0.141217,2.0739,0.534329,0,3.8,0,12228,49.295,25.487,12563.8
4742761390,0.634771,2.223,125.675,0.136297,0.00573401,0.969764,-3.0235,2.11727,0.0376012,0.153411,1.52347,0.386955,0,3.8,0,12228,49.295,25.487,12563.8
4742861723,0.634771,2.223,125.681,0.106892,0.00324534,0.969869,-3.12743,2.19282,0.0482553,0.0554826,1.22701,0.139947,0,3.8,0,12228,49.295,25.487,12563.8
4742962069,0.634771,2.223,125.694,0.083107,0.00511194,0.970228,-3.20264,2.25938,0.0559331,0.117415,0.927048,0.169873,0,3.8,0,12228,49.262,26.869,13236.2
4743062423,0.634771,2.223,125.709,0.0622682,0.0083918,0.970522,-3.25557,2.31273,0.0595546,0.10699,0.716874,0.00524252,0,3.8,0,12228,49.262,26.869,13236.2
4743162751,0.634771,2.223,125.714,0.0457863,0.0129998,0.970797,-3.28876,2.34206,0.0451846,0.0185208,0.414855,-0.084167,0,3.8,0,12228,49.262,26.869,13236.2
4743263097,0.634771,2.223,125.717,0.0364237,0.0175105,0.970964,-3.32481,2.36994,0.033512,0.0187307,0.4341,-0.0619952,0,3.8,0,12228,49.262,26.869,13236.2
4743363453,0.63477,2.223,125.719,0.0279517,0.0204384,0.971111,-3.34232,2.39351,0.0252279,0.114534,0.270283,0.0690335,0,3.8,0,12228,49.262,26.869,13236.2
4743463807,0.63477,2.223,125.725,0.0210397,0.0220676,0.9714,-3.35761,2.40359,0.0362471,0.0274885,0.18828,0.103574,0,3.8,0,12228,49.262,26.869,13236.2
4743564178,0.63477,2.223,125.719,0.016795,0.0220685,0.971388,-3.36823,2.4062,0.0339946,-0.027532,0.134063,0.0824268,0,3.8,0,12228,49.262,26.869,13236.2
4743664470,0.63477,2.223,125.714,0.0148946,0.0199612,0.971063,-3.37207,2.41504,0.0362824,0.075817,0.109717,0.120967,0,3.8,0,12228,49.262,26.869,13236.2
4743764788,0.63477,2.223,125.714,0.0105889,0.0194021,0.970718,-3.3709,2.42345,0.0289238,0.0833275,0.0522738,0.272276,0,3.8,0,12228,49.262,26.869,13236.2
4743865126,0.63477,2.223,125.717,0.0110721,0.0199409,0.970376,-3.36315,2.4307,0.0350228,0.118138,0.0620004,-0.104285,0,3.8,0,12228,49.262,26.869,13236.2
4743965544,0.63477,2.223,125.719,0.0124143,0.0197756,0.970648,-3.35382,2.43379,0.0441371,0.0756802,-0.00828183,-0.111998,0,5,0,12228,49.295,25.078,12362.2
4744065895,0.63477,2.223,125.722,0.0211784,0.0202945,0.968763,-3.35303,2.43791,0.0259347,0.0387936,0.079423,-0.0798106,0,5,0,12228,49.295,25.078,12362.2
4744166228,0.63477,2.223,125.723,0.0877067,0.0168494,0.970202,-3.36951,2.43996,0.0603634,-0.0550052,0.378045,-0.195854,0,5,0,12228,49.295,25.078,12362.2
4744266589,0.63477,2.223,125.725,0.157677,0.0171723,0.971567,-3.43951,2.49833,0.0144942,0.0766013,1.09286,-0.187679,0,5,0,12228,49.295,25.078,12362.2
4744366948,0.63477,2.223,125.721,0.195772,0.0201424,0.971686,-3.56863,2.60019,0.0123566,0.136653,1.71316,0.367574,0,5,0,12228,49.295,25.078,12362.2
4744467305,0.63477,2.223,125.714,0.199134,0.0236604,0.972132,-3.75125,2.72734,0.00646938,0.0416277,1.83665,0.602774,0,5,0,12228,49.295,25.078,12362.2
4744567667,0.63477,2.223,125.709,0.181707,0.0260598,0.972296,-3.8774,2.81324,0.0230616,0.0259845,1.85364,0.571076,0,5,0,12228,49.295,25.078,12362.2
4744668046,0.63477,2.223,125.708,0.151622,0.0274398,0.972287,-4.04159,2.91019,0.0331565,-0.059109,1.49439,0.138724,0,5,0,12228,49.295,25.078,12362.2
4744768371,0.63477,2.223,125.709,0.123895,0.0283325,0.97219,-4.14489,2.97711,0.0396328,-0.0252138,1.27056,0.110735,0,5,0,12228,49.295,25.078,12362.2
4744868628,0.63477,2.223,125.7,0.0992233,0.030999,0.97215,-4.23691,3.02693,0.0314017,-0.122852,1.01347,0.0799342,0,5,0,12228,49.295,25.078,12362.2
4744968983,0.63477,2.223,125.699,0.0795282,0.0320702,0.972067,-4.30502,3.04487,0.0489109,-0.186829,0.682149,0.287051,0,5,0,12228,49.286,25.612,12623.1
4745069349,0.634769,2.223,125.709,0.062755,0.0302712,0.971861,-4.36837,3.06276,0.0486286,-0.164489,0.594205,-0.0812871,0,5,0,12228,49.286,25.612,12623.1
4745170116,0.634769,2.223,125.712,0.0489147,0.030238,0.971831,-4.41065,3.07423,0.0449526,-0.13066,0.383329,0.0686262,0,5,0,12228,49.286,25.612,12623.1
4745272913,0.634769,2.223,125.709,0.0359887,0.0293651,0.971879,-4.44236,3.08184,0.0466608,-0.0915475,0.282469,-0.0424182,0,5,0,12228,49.286,25.612,12623.1
4745373299,0.634769,2.223,125.715,0.0300682,0.0276836,0.971712,-4.46707,3.08696,0.0418422,-0.0598054,0.207216,-0.0323602,0,5,0,12228,49.286,25.612,12623.1
4745473672,0.634769,2.223,125.717,0.023886,0.02375,0.971829,-4.49565,3.08618,0.0297488,-0.101575,0.227398,-0.206817,0,5,0,12228,49.286,25.612,12623.1
4745574017,0.634769,2.223,125.707,0.0169183,0.0190267,0.971704,-4.51639,3.08278,0.0252881,-0.0873232,0.155189,0.0587578,0,5,0,12228,49.286,25.612,12623.1
4745674341,0.634769,2.223,125.701,0.0144301,0.0149281,0.971426,-4.5159,3.08634,0.0235596,0.0588597,0.049722,-0.112891,0,5,0,12228,49.286,25.612,12623.1
4745774683,0.634769,2.223,125.695,0.0159441,0.012405,0.971301,-4.51329,3.07064,0.00833133,-0.00115177,0.00906586,0.401212,0,5,0,12228,49.286,25.612,12623.1
4745875039,0.634769,2.223,125.686,0.0176284,0.0128028,0.97092,-4.5088,3.08143,0.0210215,0.147214,0.0385937,0.140676,0,5,0,12228,49.286,25.612,12623.1
4745975431,0.634769,2.223,125.683,0.0189685,0.0169972,0.970871,-4.5139,3.08307,0.041564,0.0461599,0.0735411,0.250751,0,-1.4,0,12184,49.3,24.81,12231.3
4746075789,0.634769,2.223,125.676,-0.00641474,0.019026,0.972424,-4.51434,3.08998,0.0274697,0.044986,0.14325,0.000273238,0,-1.4,0,12184,49.3,24.81,12231.3
4746176145,0.634769,2.223,125.679,-0.176974,0.0164646,0.968446,-4.47365,3.06579,0.0961705,0.106009,-0.627284,0.963359,0,-1.4,0,12184,49.3,24.81,12231.3
4746276474,0.634769,2.223,125.686,-0.319703,0.0115371,0.968057,-4.27349,2.93015,0.0620634,0.0469601,-2.5968,-0.121721,0,-1.4,0,12184,49.3,24.81,12231.3
4746376833,0.634769,2.223,125.691,-0.404645,0.00917565,0.968718,-3.96758,2.73281,0.0115418,0.101838,-3.47718,1.22786,0,-1.4,0,12184,49.3,24.81,12231.3
4746477177,0.634768,2.223,125.693,-0.4457,0.0100938,0.968275,-3.585,2.47945,0.00361797,0.100144,-4.02706,2.00815,0,-1.4,0,12184,49.3,24.81,12231.3
4746577535,0.634768,2.223,125.699,-0.456855,0.0122599,0.967222,-3.17439,2.20638,0.00307259,0.112623,-4.28921,1.98292,0,-1.4,0,12184,49.3,24.81,12231.3
4746677967,0.634768,2.223,125.703,-0.450275,0.0140033,0.966004,-2.76877,1.92809,0.0144346,0.0314491,-4.26782,2.12301,0,-1.4,0,12184,49.3,24.81,12231.3
4746778423,0.634768,2.223,125.703,-0.438558,0.0165608,0.965113,-2.37375,1.65656,0.021159,0.0487733,-4.13098,2.04124,0,-1.4,0,12184,49.3,24.81,12231.3
4746878877,0.634768,2.223,125.7,-0.425522,0.0180743,0.964266,-1.9927,1.39098,0.029437,-0.00344326,-4.01044,1.79822,0,-1.4,0,12184,49.3,24.81,12231.3
4746979296,0.634768,2.223,125.704,-0.414551,0.0184598,0.963788,-1.63741,1.13686,0.0317752,-0.0196817,-3.73628,1.70707,0,-1.4,0,12184,49.295,24.96,12304
4747079659,0.634768,2.223,125.703,-0.404489,0.0180821,0.963458,-1.29681,0.892392,0.0376992,0.00904714,-3.59764,1.59388,0,-1.4,0,12184,49.295,24.96,12304
4747180079,0.634768,2.223,125.711,-0.396907,0.0183886,0.963024,-0.963218,0.655649,0.0388995,0.00344913,-3.5615,1.35584,0,-1.4,0,12184,49.295,24.96,12304
4747281099,0.634768,2.223,125.72,-0.385216,0.0172716,0.963344,-0.650776,0.423639,0.0422887,-0.0296796,-3.35271,1.43692,0,-1.4,0,12184,49.295,24.96,12304
4747387690,0.634768,2.223,125.736,-0.345508,0.0151995,0.964646,-0.351974,0.208915,0.0541648,0.0226959,-3.17523,1.11753,0,-1.4,0,12184,49.295,24.96,12304
4747488098,0.634768,2.223,125.741,-0.300547,0.0111985,0.966051,-0.102233,0.0161932,0.059863,-0.10113,-2.69724,0.915485,0,-1.4,0,12184,49.295,24.96,12304
4747588458,0.634768,2.223,125.746,-0.257439,0.00426823,0.968107,0.0930332,-0.139014,0.0563636,-0.0503244,-2.21378,0.520966,0,-1.4,0,12184,49.295,24.96,12304
4747688828,0.634768,2.223,125.755,-0.221187,0.00350961,0.968975,0.260522,-0.255071,0.051201,0.0580038,-1.79968,0.13736,0,-1.4,0,12184,49.295,24.96,12304
4747789163,0.634768,2.223,125.768,-0.191219,0.00495803,0.968703,0.385675,-0.353662,0.0389475,-0.00298199,-1.42422,0.18107,0,-1.4,0,12184,49.295,24.96,12304
4747889480,0.634768,2.223,125.776,-0.16386,0.0053935,0.968628,0.509545,-0.44627,0.0373692,0.021881,-1.15359,0.0440808,0,-1.4,0,12184,49.295,24.96,12304
4747989927,0.634768,2.223,125.782,-0.141289,0.00529256,0.968251,0.57896,-0.499472,0.0245444,0.0298008,-0.801166,-0.159384,0,1.3,0,12184,49.295,24.96,12304
4748090352,0.634768,2.223,125.783,-0.115125,0.00499355,0.96645,0.6382,-0.549592,0.0242113,0.0118118,-0.743933,0.585905,0,1.3,0,12184,49.307,25.034,12343.5
4748190726,0.634768,2.223,125.8,0.100955,0.00522544,0.969432,0.661293,-0.562005,0.103138,0.100275,0.169281,0.527333,0,1.3,0,12184,49.307,25.034,12343.5
4748291070,0.634768,2.223,125.819,0.313129,0.0105898,0.9762,0.414068,-0.39184,0.103325,0.0727529,3.25458,-0.172345,0,1.3,0,12184,49.307,25.034,12343.5
4748391491,0.634768,2.223,125.83,0.371941,0.0105927,0.976103,0.0789785,-0.173963,-0.011836,0.00759904,4.01587,0.5549,0,1.3,0,12184,49.307,25.034,12343.5
4748492667,0.634768,2.223,125.832,0.358209,-0.00378566,0.971511,-0.283761,0.0811738,-0.0591675,0.162507,4.04258,1.31781,0,1.3,0,12184,49.307,25.034,12343.5
4748594951,0.634768,2.223,125.83,0.280624,-0.01847,0.96707,-0.591533,0.35548,-0.0747198,0.561937,3.50507,1.0381,0,1.3,0,12184,49.307,25.034,12343.5
4748695311,0.634768,2.223,125.804,0.191064,-0.0210009,0.967886,-0.827223,0.574541,-0.0743583,0.484435,2.70268,0.764139,0,1.3,0,12184,49.307,25.034,12343.5
4748795598,0.634768,2.223,125.781,0.118087,-0.0118775,0.970316,-0.99736,0.74209,-0.0452911,0.455771,1.94059,0.631888,0,1.3,0,12184,49.307,25.034,12343.5
4748895892,0.634768,2.223,125.784,0.0675166,0.00035874,0.971754,-1.1252,0.863956,-0.0264837,0.281531,1.39453,0.182013,0,1.3,0,12184,49.307,25.034,12343.5
4748996221,0.634768,2.223,125.786,0.0283143,0.00867324,0.972137,-1.21647,0.949229,-0.00395575,0.249503,0.930513,-0.0872592,0,1.3,0,12184,49.307,25.034,12343.5
4749099906,0.634768,2.223,125.777,-0.00300876,0.0150219,0.971552,-1.28451,1.0072,-0.0197147,0.0783352,0.521387,-0.230567,0,1.3,0,12184,49.192,28.196,13870.2
4749200273,0.634768,2.223,125.763,-0.0246503,0.0195683,0.970748,-1.31584,1.04208,-0.0102252,0.123477,0.170246,0.348437,0,1.3,0,12184,49.192,28.196,13870.2
4749300625,0.634768,2.223,125.759,-0.0398795,0.023546,0.970404,-1.33599,1.05875,-0.00164417,0.0647497,0.00219646,0.0088759,0,1.3,0,12184,49.192,28.196,13870.2
4749400905,0.634768,2.223,125.756,-0.0495716,0.025408,0.970176,-1.34822,1.05783,-0.00312171,-0.0270425,-0.149449,0.0511466,0,1.3,0,12184,49.192,28.196,13870.2
4749501219,0.634768,2.223,125.751,-0.0538235,0.0241628,0.970086,-1.3549,1.04739,0.00625244,-0.0765822,-0.166589,0.0275995,0,1.3,0,12184,49.192,28.196,13870.2
4749601520,0.634768,2.223,125.748,-0.0575236,0.0213626,0.970284,-1.35156,1.03858,0.0124402,-0.0307973,-0.272797,-0.0820331,0,1.3,0,12184,49.192,28.196,13870.2
4749703132,0.634768,2.223,125.746,-0.0569898,0.0209409,0.970538,-1.34343,1.0249,0.00699237,-0.0632602,-0.262878,-0.123922,0,1.3,0,12184,49.192,28.196,13870.2
4749807151,0.634768,2.223,125.749,-0.0546717,0.0201282,0.970719,-1.32323,1.01494,0.0183415,0.0300915,-0.24396,-0.385257,0,1.3,0,12184,49.192,28.196,13870.2
4749907510,0.634768,2.223,125.746,-0.0530624,0.0186368,0.970927,-1.32132,1.00803,0.00587631,-0.0304091,-0.0661106,-0.192734,0,1.3,0,12184,49.192,28.196,13870.2
4750007900,0.634768,2.223,125.74,-0.0519396,0.0184927,0.97091,-1.30744,0.997841,0.000853681,0.0741745,-0.17172,0.420297,0,-4.9,0,12184,49.192,28.196,13870.2
4750108325,0.634768,2.223,125.733,-0.0649391,0.0190659,0.972251,-1.28814,0.987103,0.02323,0.0821269,-0.115237,0.484693,0,-4.9,0,12184,49.261,26,12807.9
4750208698,0.634768,2.223,125.725,-0.196881,0.0140249,0.969638,-1.23731,0.949557,0.0271387,0.0304452,-0.8391,-0.0500908,0,-4.9,0,12184,49.261,26,12807.9
4750309086,0.634768,2.223,125.717,-0.31729,0.0078625,0.969226,-1.04596,0.834699,-0.000274751,0.159022,-2.05958,1.06753,0,-4.9,0,12184,49.261,26,12807.9
4750409453,0.634768,2.223,125.708,-0.400391,0.00610351,0.968834,-0.752742,0.649384,-0.0031796,0.110336,-3.1376,1.41998,0,-4.9,0,12184,49.261,26,12807.9
4750511502,0.634768,2.223,125.701,-0.442659,0.00514451,0.968707,-0.402824,0.421509,0.00561712,0.134569,-3.65223,1.86953,0,-4.9,0,12184,49.261,26,12807.9
4750611923,0.634768,2.223,125.689,-0.453293,0.0074515,0.967844,-0.0253149,0.184132,0.00154983,0.161216,-3.76133,2.16885,0,-4.9,0,12184,49.261,26,12807.9
4750712368,0.634768,2.223,125.68,-0.445206,0.0109956,0.966869,0.358864,-0.0630704,0.0120024,0.17309,-3.92176,1.87491,0,-4.9,0,12184,49.261,26,12807.9
4750812713,0.634768,2.223,125.67,-0.435278,0.0152207,0.965878,0.71176,-0.306641,0.0268398,0.0716332,-3.64862,1.89108,0,-4.9,0,12184,49.261,26,12807.9
4750913054,0.634768,2.223,125.672,-0.428502,0.0192454,0.965021,1.05658,-0.547423,0.0494167,0.0679303,-3.43845,2.198,0,-4.9,0,12184,49.261,26,12807.9
4751013464,0.634768,2.223,125.681,-0.421814,0.0211043,0.965582,1.39111,-0.773378,0.0682638,0.00411884,-3.35231,1.59857,0,-4.9,0,12184,49.261,26,12807.9
4751113771,0.634768,2.223,125.691,-0.416494,0.0205384,0.966336,1.71981,-0.986394,0.060249,0.181586,-3.3784,1.51478,0,-4.9,0,12184,49.248,26,12804.5
4751214133,0.634768,2.223,125.708,-0.409994,0.0208001,0.966702,2.03268,-1.18622,0.0479164,0.11621,-3.23755,1.16011,0,-4.9,0,12184,49.248,26,12804.5
4751314480,0.634768,2.223,125.722,-0.404537,0.0224193,0.966127,2.32765,-1.39218,0.0483063,0.0491254,-3.05873,1.4387,0,-4.9,0,12184,49.248,26,12804.5
4751414842,0.634768,2.223,125.734,-0.401311,0.0236446,0.966101,2.6048,-1.60009,0.0599275,-0.047999,-3.07356,0.868791,0,-4.9,0,12184,49.248,26,12804.5
