timestamp,lat,log,alt,roll,pitch,yaw,vel_x,vel_y,vel_z,acc_x,acc_y,acc_z,act_vx,act_vy,act_yr,capacity,vol,cur,power
360712102,0.63477,2.223,116.946,0.0117716,0.0284232,0.956902,-0.0612423,-0.0507346,0.023074,-0.0142554,-0.039177,-0.0259987,0,-0.9,0,12047,49.399,24.226,11967.4
360814278,0.63477,2.223,116.948,0.00963927,0.0292318,0.956882,-0.0611717,-0.0470442,0.0185809,-0.0204806,-0.0114517,0.0603695,0,-0.9,0,12047,49.399,24.226,11967.4
360915191,0.63477,2.223,116.945,-0.00450663,0.0277583,0.95798,-0.0511307,-0.0510512,0.0222656,-0.0271517,-0.102635,0.175831,0,-0.9,0,12047,49.399,24.226,11967.4
361016689,0.63477,2.223,116.935,-0.0696093,0.0231045,0.956658,-0.0325233,-0.0613401,0.0485192,-0.0171579,-0.453231,-0.0133773,0,-0.9,0,12047,49.399,24.226,11967.4
361117065,0.63477,2.223,116.931,-0.11817,0.0157514,0.956371,0.0521144,-0.115305,0.0292914,0.00372182,-1.03852,-0.159726,0,-0.9,0,12047,49.399,24.226,11967.4
361217435,0.63477,2.223,116.931,-0.141528,0.0121415,0.956996,0.183125,-0.18625,0.025514,0.16049,-1.49837,0.116606,0,-0.9,0,12047,49.399,24.226,11967.4
361317786,0.63477,2.223,116.926,-0.13768,0.012576,0.957347,0.322502,-0.259296,0.0140764,0.168799,-1.6012,-0.0729205,0,-0.9,0,12047,49.436,23.879,11804.8
361418148,0.63477,2.223,116.914,-0.117666,0.0157447,0.957979,0.456015,-0.329498,0.00890993,0.123518,-1.39817,0.362197,0,-0.9,0,12047,49.436,23.879,11804.8
361518503,0.63477,2.223,116.904,-0.0916488,0.0202445,0.957941,0.569291,-0.385151,0.0161021,0.112402,-1.16841,0.205972,0,-0.9,0,12047,49.436,23.879,11804.8
361618863,0.63477,2.223,116.896,-0.0682079,0.0256783,0.957742,0.653023,-0.422922,0.0253102,0.0969785,-0.88659,0.15014,0,-0.9,0,12047,49.436,23.879,11804.8
361719245,0.63477,2.223,116.888,-0.0513892,0.0300576,0.957681,0.713121,-0.46459,0.0236388,-0.015451,-0.710475,0.124087,0,-0.9,0,12047,49.436,23.879,11804.8
361819596,0.63477,2.223,116.879,-0.035347,0.0326448,0.957248,0.751504,-0.504694,0.0278673,-0.142776,-0.509608,0.202913,0,-0.9,0,12047,49.436,23.879,11804.8
361919982,0.63477,2.223,116.879,-0.0232281,0.0328845,0.957074,0.775306,-0.530561,0.0435051,-0.123963,-0.359142,0.319846,0,-0.9,0,12047,49.436,23.879,11804.8
362020378,0.63477,2.223,116.882,-0.012977,0.0324713,0.956898,0.787024,-0.557676,0.0425877,-0.180293,-0.207418,-0.120431,0,-0.9,0,12047,49.436,23.879,11804.8
362120737,0.63477,2.223,116.877,-0.00835021,0.0310684,0.956744,0.793403,-0.57293,0.0358457,-0.145577,-0.128842,0.0906977,0,-0.9,0,12047,49.436,23.879,11804.8
362222176,0.63477,2.223,116.869,-0.00533349,0.0278207,0.956565,0.804782,-0.584952,0.0416517,-0.0202342,-0.17959,0.294186,0,-0.9,0,12047,49.436,23.879,11804.8
362327500,0.63477,2.223,116.874,-0.00259277,0.0279301,0.956519,0.807867,-0.59333,0.0614578,-0.0934801,-0.0629887,0.103243,0,-0.9,0,12047,49.408,24.262,11987.4
362427887,0.63477,2.223,116.87,-0.000304119,0.0270694,0.956387,0.812384,-0.597067,0.0473391,-0.00913078,-0.0619008,0.0967277,0,-0.9,0,12047,49.408,24.262,11987.4
362528356,0.63477,2.223,116.866,0.000466004,0.0270876,0.956359,0.802702,-0.595834,0.0541417,-0.107074,0.0825454,0.24947,0,-0.9,0,12047,49.408,24.262,11987.4
362628706,0.63477,2.223,116.864,-0.000712403,0.0259395,0.956605,0.798544,-0.605112,0.0532991,-0.113357,-0.0412273,0.0437272,0,-0.9,0,12047,49.408,24.262,11987.4
362729126,0.63477,2.223,116.857,-0.00141917,0.0241973,0.956469,0.809282,-0.612761,0.0452793,-0.0531121,-0.172103,0.0470917,0,4.1,0,12047,49.408,24.262,11987.4
362829479,0.63477,2.223,116.85,0.0184065,0.023154,0.95459,0.818101,-0.613766,0.0512364,0.00448892,-0.175719,0.475137,0,4.1,0,12047,49.408,24.262,11987.4
362929813,0.63477,2.223,116.848,0.171647,0.0166874,0.958499,0.779953,-0.582296,0.111709,-0.0164596,0.784999,-0.216821,0,4.1,0,12047,49.408,24.262,11987.4
363030164,0.63477,2.223,116.858,0.313905,0.0110147,0.959656,0.606541,-0.439955,0.0225237,0.149859,2.38695,0.334819,0,4.1,0,12047,49.408,24.262,11987.4
363130526,0.63477,2.223,116.861,0.402352,0.0124681,0.960345,0.321932,-0.211926,0.0244209,0.160964,3.29719,1.56801,0,4.1,0,12047,49.408,24.262,11987.4
363230879,0.63477,2.223,116.862,0.442912,0.0146716,0.961563,-0.0291741,0.0545101,0.0268528,0.147253,3.95305,1.89682,0,4.1,0,12047,49.408,24.262,11987.4
363331278,0.63477,2.223,116.862,0.454247,0.0160755,0.961645,-0.415587,0.339778,0.0392211,0.0591737,4.11323,2.17556,0,4.1,0,12047,49.408,24.262,11987.4
363431627,0.63477,2.223,116.861,0.449597,0.0174404,0.961936,-0.804717,0.629671,0.0577246,0.063787,4.11985,2.21599,0,4.1,0,12047,49.385,24.683,12189.7
363531980,0.63477,2.223,116.871,0.440987,0.0214237,0.96272,-1.17752,0.905873,0.065545,0.0835571,4.05675,1.79005,0,4.1,0,12047,49.385,24.683,12189.7
363632382,0.63477,2.223,116.88,0.431561,0.0246251,0.963031,-1.53988,1.16273,0.0645171,-0.00711567,3.83542,1.86368,0,4.1,0,12047,49.385,24.683,12189.7
363732750,0.63477,2.223,116.893,0.411803,0.0285294,0.963501,-1.89518,1.41536,0.0641072,-0.0331745,3.73469,1.76768,0,4.1,0,12047,49.385,24.683,12189.7
363833123,0.63477,2.223,116.908,0.359664,0.0316003,0.963411,-2.22487,1.64357,0.0789891,-0.0763726,3.44914,1.33165,0,4.1,0,12047,49.385,24.683,12189.7
363933474,0.63477,2.223,116.924,0.304587,0.0330553,0.963093,-2.49715,1.83223,0.0892132,-0.102314,2.85887,0.872453,0,4.1,0,12047,49.385,24.683,12189.7
364033809,0.63477,2.223,116.935,0.253252,0.0323027,0.96181,-2.72721,1.972,0.0906841,-0.189949,2.3425,0.49106,0,4.1,0,12047,49.385,24.683,12189.7
364134179,0.63477,2.223,116.953,0.211366,0.0316521,0.961199,-2.89837,2.10537,0.0905537,-0.0348991,1.86824,0.0780747,0,4.1,0,12047,49.385,24.683,12189.7
364234533,0.63477,2.223,116.978,0.173731,0.0299207,0.960629,-3.0314,2.19967,0.0727925,-0.0664309,1.4127,0.0793868,0,4.1,0,12047,49.385,24.683,12189.7
364334960,0.634769,2.223,116.992,0.145079,0.0294954,0.960395,-3.13481,2.28335,0.0720239,0.0316923,1.13431,0.111202,0,4.1,0,12047,49.385,24.683,12189.7
364435295,0.634769,2.223,117.004,0.127237,0.0306875,0.960363,-3.2042,2.33859,0.0497509,0.0341169,0.805016,-0.341195,0,4.1,0,12004,49.372,24.749,12219.1
364535657,0.634769,2.223,117.011,0.114312,0.0348584,0.960889,-3.25996,2.3748,0.025595,-0.145814,0.637097,-0.167163,0,4.1,0,12004,49.372,24.749,12219.1
364635993,0.634769,2.223,117.008,0.106237,0.0361903,0.960851,-3.31202,2.39635,0.00928752,-0.175237,0.593211,-0.152585,0,4.1,0,12004,49.372,24.749,12219.1
364736430,0.634769,2.223,117.008,0.101828,0.036314,0.959916,-3.34036,2.4225,-0.0143036,-0.037383,0.417078,-0.297947,0,0.6,0,12004,49.372,24.749,12219.1
364836790,0.634769,2.223,117.002,0.0612071,0.0354386,0.960631,-3.37179,2.44177,-0.0380245,-0.0493453,0.444981,0.245777,0,0.6,0,12004,49.372,24.749,12219.1
364937153,0.634769,2.223,117.003,-0.16128,0.0331701,0.953385,-3.35907,2.42057,0.0614359,-0.092198,-0.404753,1.01447,0,0.6,0,12004,49.372,24.749,12219.1
365037505,0.634769,2.223,117.015,-0.336808,0.0292988,0.951189,-3.11555,2.24257,0.0876765,-0.0999102,-3.05169,0.254166,0,0.6,0,12004,49.372,24.749,12219.1
365137841,0.634769,2.223,117.026,-0.433603,0.0388409,0.947888,-2.76838,2.00182,-0.0119488,-0.0362599,-3.92735,1.50108,0,0.6,0,12004,49.372,24.749,12219.1
365238229,0.634769,2.223,117.024,-0.451515,0.0465887,0.946678,-2.33416,1.67659,-0.0329312,-0.195862,-4.78101,2.13167,0,0.6,0,12004,49.372,24.749,12219.1
365338593,0.634769,2.223,117.011,-0.410114,0.0487806,0.947774,-1.91188,1.34719,-0.0482571,-0.295594,-4.53095,2.03867,0,0.6,0,12004,49.372,24.749,12219.1
365438960,0.634769,2.223,116.997,-0.34033,0.0405509,0.952473,-1.55833,1.05854,-0.0650131,-0.330231,-4.0657,1.34274,0,0.6,0,12004,49.274,26.447,13031.5
365539309,0.634769,2.223,116.968,-0.257897,0.0284969,0.956859,-1.26419,0.82693,-0.0686013,-0.236474,-3.16342,1.1637,0,0.6,0,12004,49.274,26.447,13031.5
365639688,0.634769,2.223,116.929,-0.180469,0.0073431,0.960878,-1.03232,0.660701,-0.0615642,-0.0467435,-2.36527,0.929313,0,0.6,0,12004,49.274,26.447,13031.5
365740088,0.634769,2.223,116.921,-0.115263,-0.00430938,0.960265,-0.850474,0.558335,-0.0320649,0.144359,-1.68114,0.492809,0,0.6,0,12004,49.274,26.447,13031.5
365840503,0.634769,2.223,116.926,-0.0647585,-0.000761408,0.957928,-0.707014,0.504345,-0.0207983,0.287805,-1.16115,0.423025,0,0.6,0,12004,49.274,26.447,13031.5
365940889,0.634769,2.223,116.933,-0.0284278,0.00736738,0.956326,-0.612819,0.465122,0.0124189,0.144242,-0.688699,0.357252,0,0.6,0,12004,49.274,26.447,13031.5
366041273,0.634769,2.223,116.94,-0.00544845,0.0152446,0.955071,-0.554062,0.442178,0.0178908,0.0982072,-0.355207,-0.14654,0,0.6,0,12004,49.274,26.447,13031.5
366141648,0.634769,2.223,116.948,0.0108648,0.0221283,0.954778,-0.504704,0.427903,0.0259915,0.136781,-0.282503,0.135758,0,0.6,0,12004,49.274,26.447,13031.5
366241991,0.634769,2.223,116.96,0.0211932,0.025535,0.954804,-0.484484,0.418042,0.0325388,-0.0282577,-0.0632957,-0.0196813,0,0.6,0,12004,49.274,26.447,13031.5
366342350,0.634769,2.223,116.968,0.0277331,0.0258633,0.954782,-0.475949,0.418156,0.024874,0.0094942,0.0473964,-0.186503,0,0.6,0,12004,49.274,26.447,13031.5
366442709,0.634769,2.223,116.975,0.0294177,0.02741,0.95534,-0.467113,0.42777,0.0212049,0.060191,0.0957627,-0.0730392,0,0.6,0,12004,49.424,25.827,12764.7
366543068,0.634769,2.223,116.975,0.0299512,0.0280263,0.955453,-0.46908,0.431344,0.0208317,-0.0569389,0.0376746,0.0402831,0,0.6,0,12004,49.424,25.827,12764.7
366643409,0.634769,2.223,116.971,0.0311989,0.0297036,0.955932,-0.467686,0.439248,0.0138627,-0.0140357,0.0705445,-0.00491452,0,0.6,0,12004,49.424,25.827,12764.7
366743839,0.634769,2.223,116.975,0.0298742,0.033073,0.955865,-0.475734,0.438695,0.00989529,-0.103351,0.0262104,-0.0537121,0,-4.4,0,12004,49.424,25.827,12764.7
366845772,0.634769,2.223,116.985,0.014234,0.0358152,0.957342,-0.487004,0.444215,0.0165126,-0.0566386,0.0732085,0.0850092,0,-4.4,0,12004,49.424,25.827,12764.7
366951613,0.634769,2.223,116.988,-0.162641,0.033711,0.952048,-0.473625,0.412404,0.0658423,-0.201164,-0.706952,0.100908,0,-4.4,0,12004,49.424,25.827,12764.7
367052123,0.634769,2.223,116.993,-0.304753,0.025431,0.950465,-0.284959,0.27013,0.0225333,-0.116887,-2.63513,0.0254019,0,-4.4,0,12004,49.424,25.827,12764.7
367152462,0.634769,2.223,116.998,-0.395432,0.0163653,0.951921,0.00593898,0.075884,-0.0269955,0.0465311,-3.53054,1.13227,0,-4.4,0,12004,49.424,25.827,12764.7
367252805,0.634769,2.223,116.991,-0.434432,0.0112696,0.953997,0.369859,-0.176747,-0.0349471,0.00236931,-4.12612,1.82975,0,-4.4,0,12004,49.424,25.827,12764.7
367353192,0.634769,2.223,116.983,-0.446778,0.0122769,0.953771,0.774619,-0.437088,-0.0395468,0.137354,-4.40826,2.00278,0,-4.4,0,12004,49.424,25.827,12764.7
367453568,0.634769,2.223,116.98,-0.444062,0.0178992,0.951472,1.17922,-0.703182,-0.0254471,0.170098,-4.26501,2.29992,0,-4.4,0,12004,49.375,23.474,11590.3
367553916,0.634769,2.223,116.972,-0.433401,0.0254202,0.948537,1.56538,-0.972119,-0.0205117,0.0138554,-4.22128,1.88866,0,-4.4,0,12004,49.375,23.474,11590.3
367654233,0.634769,2.223,116.965,-0.416825,0.032362,0.946712,1.93055,-1.24094,-0.0192232,-0.108076,-3.94916,1.99688,0,-4.4,0,12004,49.375,23.474,11590.3
367754597,0.634769,2.223,116.955,-0.388651,0.0380897,0.945663,2.27707,-1.50382,-0.0126391,-0.154759,-3.84225,1.79956,0,-4.4,0,12004,49.375,23.474,11590.3
367855200,0.634769,2.223,116.952,-0.332474,0.0399692,0.945875,2.58988,-1.74477,0.00312258,-0.161618,-3.34039,1.56186,0,-4.4,0,12004,49.375,23.474,11590.3
367955575,0.634769,2.223,116.954,-0.27593,0.040026,0.947003,2.83621,-1.94295,0.018687,-0.205488,-2.76038,1.03544,0,-4.4,0,12004,49.375,23.474,11590.3
368055939,0.634769,2.223,116.967,-0.222564,0.0379083,0.948496,3.03265,-2.10443,0.0223707,-0.21067,-2.2168,0.558474,0,-4.4,0,12004,49.375,23.474,11590.3
368156339,0.634769,2.223,116.983,-0.17994,0.0352012,0.950403,3.1871,-2.22826,0.0288718,-0.173077,-1.81298,0.204462,0,-4.4,0,12004,49.375,23.474,11590.3
368256622,0.634769,2.223,117.008,-0.146123,0.0315347,0.952054,3.29697,-2.32683,0.0329958,-0.203473,-1.30648,0.134328,0,-4.4,0,12004,49.375,23.474,11590.3
368356991,0.634769,2.223,117.027,-0.122222,0.0274711,0.953554,3.37744,-2.3936,0.0266011,-0.161271,-0.944844,-0.0427855,0,-4.4,0,12004,49.375,23.474,11590.3
368457401,0.634769,2.223,117.036,-0.105329,0.0238422,0.954864,3.43901,-2.44241,0.0155446,-0.0950178,-0.737327,-0.265759,0,-4.4,0,12004,49.375,24.292,11994.2
368557794,0.63477,2.223,117.036,-0.0923659,0.0211094,0.955906,3.48591,-2.48068,0.00673015,-0.0709204,-0.585092,-0.160242,0,-4.4,0,12004,49.375,24.292,11994.2
368659996,0.63477,2.223,117.028,-0.0836076,0.0184896,0.956281,3.52192,-2.50333,-0.00224705,0.0159982,-0.496897,-0.0422068,0,-4.4,0,12004,49.375,24.292,11994.2
368761754,0.63477,2.223,117.016,-0.078861,0.0172675,0.956461,3.55239,-2.51898,-0.00818781,0.0408573,-0.375571,0.20242,0,3.7,0,12004,49.375,24.292,11994.2
368862153,0.63477,2.223,116.998,-0.064407,0.0169802,0.954544,3.57874,-2.52412,-0.0122652,0.0927619,-0.312532,0.137693,0,3.7,0,12004,49.375,24.292,11994.2
368962629,0.63477,2.223,116.986,0.126794,0.0131966,0.956922,3.59533,-2.52828,0.0509949,0.0218915,-0.0632533,0.758812,0,3.7,0,12004,49.375,24.292,11994.2
369063008,0.63477,2.223,116.986,0.324626,0.0122911,0.95895,3.40161,-2.38484,0.0244434,-0.0195485,2.7297,-0.3102,0,3.7,0,12004,49.375,24.292,11994.2
369163372,0.63477,2.223,116.978,0.437955,0.0111486,0.959105,3.06609,-2.13862,-0.0661637,0.0424928,3.91371,1.32112,0,3.7,0,12004,49.375,24.292,11994.2
369263704,0.63477,2.223,116.969,0.492347,0.0104895,0.958738,2.62419,-1.81422,-0.0760469,0.055082,4.68922,2.58033,0,3.7,0,12004,49.375,24.292,11994.2
369364059,0.63477,2.223,116.962,0.504756,0.00973022,0.958181,2.12693,-1.44977,-0.0586819,0.0294532,5.10196,3.00858,0,3.7,0,12004,49.375,24.292,11994.2
369464353,0.63477,2.223,116.959,0.496135,0.0111288,0.958463,1.62712,-1.07563,-0.0363101,0.132705,5.14335,3.00352,0,3.7,0,12004,49.375,24.292,11994.2
369564665,0.63477,2.223,116.954,0.48024,0.0134803,0.959076,1.15374,-0.723102,-0.0119989,0.0846611,4.79017,2.80545,0,3.7,0,12004,49.375,24.292,11994.2
369665022,0.63477,2.223,116.96,0.466071,0.0158509,0.959917,0.706936,-0.383528,-0.0044684,0.124829,4.61552,2.47225,0,3.7,0,12004,49.375,24.292,11994.2
369765367,0.63477,2.223,116.975,0.451577,0.0202278,0.961435,0.272437,-0.0646647,0.00686156,0.024194,4.51174,2.16694,0,3.7,0,12004,49.375,24.292,11994.2
369865630,0.63477,2.223,116.983,0.43731,0.0246806,0.962767,-0.145037,0.245964,0.00962076,0.0641559,4.35065,2.06131,0,3.7,0,12004,49.375,24.292,11994.2
369965888,0.63477,2.223,116.989,0.42552,0.0272258,0.963408,-0.605976,0.582399,0.0102104,-0.0300189,4.03676,1.60254,0,3.7,0,12004,49.375,24.292,11994.2
370066145,0.63477,2.223,117.001,0.41512,0.0295082,0.963928,-0.982527,0.84808,0.0132803,-0.0853618,3.89025,1.66778,0,3.7,0,11960,49.237,26.452,13024.2
370166392,0.63477,2.223,117.011,0.401017,0.0337095,0.965155,-1.35078,1.10207,0.00996727,-0.120983,3.84168,1.5457,0,3.7,0,11960,49.237,26.452,13024.2
370266649,0.63477,2.223,117.016,0.355045,0.036882,0.965122,-1.68432,1.3323,0.0208819,-0.10502,3.36967,1.51219,0,3.7,0,11960,49.237,26.452,13024.2
370366863,0.63477,2.223,117.022,0.301344,0.038304,0.964544,-1.95365,1.51166,0.0262495,-0.146393,2.85235,0.628687,0,3.7,0,11960,49.237,26.452,13024.2
370467129,0.63477,2.223,117.03,0.250644,0.0382508,0.963275,-2.17138,1.65101,0.0307276,-0.197679,2.28119,0.642747,0,3.7,0,11960,49.237,26.452,13024.2
370567397,0.63477,2.223,117.038,0.206135,0.0350782,0.962205,-2.34032,1.76472,0.024727,-0.131228,1.8454,0.166951,0,3.7,0,11960,49.237,26.452,13024.2
370667768,0.63477,2.223,117.037,0.174205,0.0329921,0.961718,-2.47174,1.84647,0.0148839,-0.178749,1.44114,-0.0210454,0,3.7,0,11960,49.237,26.452,13024.2
370768174,0.63477,2.223,117.049,0.149887,0.0298312,0.96065,-2.56708,1.91117,0.0048658,-0.123597,1.09806,-0.0795834,0,-3.8,0,11960,49.237,26.452,13024.2
370868517,0.63477,2.223,117.062,0.11554,0.0285065,0.961492,-2.64242,1.96672,-0.000588167,-0.0853227,0.914553,0.202919,0,-3.8,0,11960,49.237,26.452,13024.2
370968921,0.634769,2.223,117.074,-0.125357,0.0231355,0.955514,-2.66245,1.98399,0.0738431,-0.0255168,-0.0813832,0.713388,0,-3.8,0,11960,49.237,26.452,13024.2
371069319,0.634769,2.223,117.101,-0.34067,0.0161493,0.954022,-2.42646,1.83556,0.0878061,0.0532256,-3.13835,-0.283479,0,-3.8,0,11960,49.216,26.367,12976.8
371169680,0.634769,2.223,117.112,-0.450643,0.0165856,0.954868,-2.06862,1.60598,-0.0268994,0.0567066,-4.22151,0.994211,0,-3.8,0,11960,49.216,26.367,12976.8
371270053,0.634769,2.223,117.108,-0.505393,0.0200027,0.954601,-1.60415,1.29646,-0.0620935,0.0263185,-4.97271,2.33209,0,-3.8,0,11960,49.216,26.367,12976.8
371370451,0.634769,2.223,117.099,-0.524694,0.0225263,0.95417,-1.11152,0.952291,-0.0851811,-0.0470303,-5.2203,2.4955,0,-3.8,0,11960,49.216,26.367,12976.8
371470806,0.634769,2.223,117.077,-0.520699,0.0191269,0.955542,-0.608822,0.604272,-0.124325,0.0308678,-5.20149,2.65276,0,-3.8,0,11960,49.216,26.367,12976.8
371571131,0.634769,2.223,117.049,-0.505001,0.0134941,0.958579,-0.0919172,0.245612,-0.114471,0.00809382,-5.11071,3.06228,0,-3.8,0,11960,49.216,26.367,12976.8
371671551,0.634769,2.223,117.038,-0.492172,0.0164917,0.956208,0.418035,-0.10417,-0.0897773,0.0617775,-4.99804,2.91732,0,-3.8,0,11960,49.216,26.367,12976.8
371771911,0.634769,2.223,117.039,-0.472028,0.0231913,0.952927,0.901785,-0.439538,-0.0683839,-0.00952195,-4.8012,2.5527,0,-3.8,0,11960,49.216,26.367,12976.8
371872273,0.634769,2.223,117.037,-0.449877,0.0297432,0.950621,1.34852,-0.759491,-0.0519349,-0.102583,-4.40419,2.381,0,-3.8,0,11960,49.216,26.367,12976.8
371972619,0.63477,2.223,117.034,-0.418988,0.036608,0.948922,1.76088,-1.07122,-0.0410895,-0.169341,-4.26192,1.96938,0,-3.8,0,11960,49.216,26.367,12976.8
372073008,0.63477,2.223,117.035,-0.352966,0.0391615,0.949027,2.1245,-1.35982,-0.0222772,-0.271333,-3.724,1.6556,0,-3.8,0,11960,49.208,28.64,14093.2
372173356,0.63477,2.223,117.04,-0.282349,0.0398598,0.949753,2.41547,-1.58563,-0.00485601,-0.161764,-2.99017,0.996717,0,-3.8,0,11960,49.208,28.64,14093.2
372273722,0.63477,2.223,117.048,-0.219945,0.039692,0.950706,2.62805,-1.75977,-0.00872639,-0.215181,-2.27368,0.446134,0,-3.8,0,11960,49.208,28.64,14093.2
372374081,0.63477,2.223,117.05,-0.169237,0.0372057,0.951981,2.78572,-1.89492,-0.00605146,-0.195655,-1.68284,0.293213,0,-3.8,0,11960,49.208,28.64,14093.2
372474437,0.63477,2.223,117.057,-0.129255,0.0336981,0.953375,2.90019,-1.98712,-0.00673843,-0.10724,-1.16206,0.205927,0,-3.8,0,11960,49.208,28.64,14093.2
372574787,0.63477,2.223,117.063,-0.102672,0.0312374,0.954066,2.97849,-2.06048,-0.0136224,-0.226579,-0.797665,0.00926082,0,-3.8,0,11960,49.208,28.64,14093.2
372675130,0.63477,2.223,117.07,-0.0844508,0.0272985,0.954599,3.03622,-2.10928,-0.0162181,-0.082239,-0.596908,-0.16118,0,-3.8,0,11960,49.208,28.64,14093.2
372775543,0.63477,2.223,117.073,-0.0723287,0.0239469,0.955073,3.07484,-2.14516,-0.0231666,-0.0936134,-0.414731,-0.0633763,0,2.4,0,11960,49.208,28.64,14093.2
372875883,0.63477,2.223,117.066,-0.0347529,0.0224522,0.953203,3.11377,-2.16338,-0.0290343,0.047481,-0.431909,0.257774,0,2.4,0,11960,49.208,28.64,14093.2
372976177,0.63477,2.223,117.064,0.175687,0.0160153,0.957752,3.09705,-2.14989,0.0387598,0.0630562,0.508251,0.295611,0,2.4,0,11960,49.208,28.64,14093.2
373076454,0.63477,2.223,117.071,0.351315,0.0119857,0.959461,2.87363,-1.987,-0.0170225,0.0498743,3.0857,-0.32704,0,2.4,0,11916,49.152,28.958,14233.4
373176813,0.63477,2.223,117.067,0.449835,0.00968477,0.959081,2.52063,-1.73419,-0.085649,-0.0238555,4.07869,1.54985,0,2.4,0,11916,49.152,28.958,14233.4
373277150,0.63477,2.223,117.06,0.493086,0.0102276,0.959111,2.07108,-1.40123,-0.0871217,0.121574,4.72259,2.58781,0,2.4,0,11916,49.152,28.958,14233.4
373377546,0.63477,2.223,117.06,0.501371,0.011813,0.959138,1.58881,-1.04861,-0.0810093,0.100402,4.90122,2.88037,0,2.4,0,11916,49.152,28.958,14233.4
373477828,0.63477,2.223,117.051,0.490934,0.0157948,0.960315,1.10607,-0.697996,-0.0596513,0.0619381,4.96472,2.67869,0,2.4,0,11916,49.152,28.958,14233.4
373578181,0.63477,2.223,117.036,0.475853,0.0206103,0.962084,0.643108,-0.365203,-0.0469619,0.0559486,4.67208,2.59373,0,2.4,0,11916,49.152,28.958,14233.4
373678535,0.63477,2.223,117.031,0.461616,0.0259457,0.96388,0.191645,-0.0450068,-0.038654,-0.00169327,4.5595,2.35379,0,2.4,0,11916,49.152,28.958,14233.4
373778888,0.63477,2.223,117.032,0.438075,0.0308413,0.965274,-0.240615,0.256313,-0.0281253,-0.0678127,4.4148,2.05955,0,2.4,0,11916,49.152,28.958,14233.4
373879281,0.63477,2.223,117.028,0.378139,0.0335174,0.964921,-0.646886,0.529765,-0.0198055,-0.100621,3.93201,1.94848,0,2.4,0,11916,49.152,28.958,14233.4
373981163,0.63477,2.223,117.025,0.309596,0.0330083,0.963506,-0.984518,0.754136,0.000927955,-0.143191,3.33037,1.24531,0,2.4,0,11916,49.152,28.958,14233.4
374081510,0.63477,2.223,117.031,0.244061,0.02962,0.961626,-1.24858,0.936365,0.00154353,-0.0995731,2.6835,0.679946,0,2.4,0,11916,49.152,28.958,14233.4
374181782,0.63477,2.223,117.039,0.186945,0.0272843,0.960374,-1.45067,1.06868,0.00638722,-0.148772,1.92825,0.511037,0,2.4,0,11916,49.185,27.832,13689.2
374282056,0.63477,2.223,117.057,0.145221,0.0249947,0.959427,-1.5936,1.166,0.0131005,-0.101041,1.38951,0.0976189,0,2.4,0,11916,49.185,27.832,13689.2
374382503,0.63477,2.223,117.072,0.113422,0.0223849,0.958716,-1.70199,1.24015,-0.00102696,-0.0777601,0.999299,-0.0972308,0,2.4,0,11916,49.185,27.832,13689.2
374482924,0.63477,2.223,117.086,0.090001,0.0211874,0.957994,-1.7813,1.29638,-0.00362468,-0.0792654,0.719568,-0.139166,0,2.4,0,11916,49.185,27.832,13689.2
374583292,0.63477,2.223,117.1,0.073877,0.0200247,0.95768,-1.82623,1.33951,-0.0131076,-0.00424382,0.498488,-0.0915803,0,2.4,0,11916,49.185,27.832,13689.2
374683654,0.63477,2.223,117.109,0.062534,0.0178814,0.957375,-1.85874,1.36936,-0.0136807,-0.00312361,0.377807,-0.100778,0,2.4,0,11916,49.185,27.832,13689.2
374784134,0.63477,2.223,117.117,0.052715,0.0177623,0.957749,-1.87897,1.39259,-0.0204588,-0.00738614,0.261117,-0.178953,0,-1.8,0,11916,49.185,27.832,13689.2
374884503,0.63477,2.223,117.119,0.0340881,0.0190387,0.959359,-1.88124,1.39955,-0.0281781,-0.0221805,0.0963496,-0.067112,0,-1.8,0,11916,49.185,27.832,13689.2
374984857,0.63477,2.223,117.122,-0.144755,0.0171921,0.957283,-1.8742,1.39226,0.0221769,-0.127374,-0.282154,0.462793,0,-1.8,0,11916,49.185,27.832,13689.2
375085220,0.63477,2.223,117.128,-0.320476,0.0135427,0.955952,-1.66832,1.25709,0.00974715,-0.00305279,-2.68214,-0.130435,0,-1.8,0,11916,49.185,27.832,13689.2
375185548,0.63477,2.223,117.125,-0.42524,0.0100067,0.957261,-1.34063,1.04398,-0.0590951,0.0405548,-3.70787,1.25332,0,-1.8,0,11916,49.102,27.35,13429.4
375285908,0.63477,2.223,117.114,-0.480637,0.00967534,0.958434,-0.825051,0.702794,-0.0993357,0.0773725,-4.60374,2.08493,0,-1.8,0,11916,49.102,27.35,13429.4
375386251,0.63477,2.223,117.112,-0.49936,0.0122681,0.958688,-0.343506,0.384915,-0.109661,0.0538628,-4.784,2.73523,0,-1.8,0,11916,49.102,27.35,13429.4
375486604,0.63477,2.223,117.091,-0.471577,0.0214448,0.955951,0.145178,0.0562003,-0.108223,0.0636263,-4.73478,2.86126,0,-1.8,0,11916,49.102,27.35,13429.4
375586945,0.63477,2.223,117.068,-0.392824,0.0283534,0.955053,0.565521,-0.245147,-0.07829,-0.0602195,-4.21047,2.23076,0,-1.8,0,11916,49.102,27.35,13429.4
375687178,0.63477,2.223,117.056,-0.303658,0.0326768,0.954016,0.897089,-0.484457,-0.0573447,-0.0964761,-3.44439,1.2717,0,-1.8,0,11916,49.102,27.35,13429.4
375787415,0.63477,2.223,117.047,-0.221234,0.0360765,0.953651,1.1392,-0.6671,-0.0465688,-0.126487,-2.42446,0.783748,0,-1.8,0,11916,49.102,27.35,13429.4
375887817,0.63477,2.223,117.05,-0.147156,0.0383745,0.953893,1.31079,-0.800382,-0.0346058,-0.143069,-1.66854,0.414718,0,-1.8,0,11916,49.102,27.35,13429.4
375988335,0.63477,2.223,117.05,-0.0967331,0.0386018,0.954646,1.43409,-0.889978,-0.0314902,-0.0899401,-1.11927,0.201411,0,-1.8,0,11916,49.102,27.35,13429.4
376088742,0.63477,2.223,117.053,-0.0643264,0.039497,0.955317,1.50283,-0.957845,-0.0221611,-0.217741,-0.613617,0.088037,0,-1.8,0,11916,49.102,27.35,13429.4
376189021,0.63477,2.223,117.049,-0.0451206,0.036361,0.955966,1.54915,-1.01689,-0.0264105,-0.240403,-0.472436,-0.121593,0,-1.8,0,11916,49.136,29.883,14683.3
376289265,0.63477,2.223,117.046,-0.0326473,0.0333458,0.956561,1.59325,-1.04863,-0.0210497,-0.0579925,-0.313557,0.0833643,0,-1.8,0,11916,49.136,29.883,14683.3
376389504,0.63477,2.223,117.045,-0.0235197,0.0323651,0.9569,1.61723,-1.06663,-0.0223564,-0.0494036,-0.142729,0.0347337,0,-1.8,0,11916,49.136,29.883,14683.3
376489713,0.63477,2.223,117.039,-0.0202073,0.0302261,0.957202,1.62884,-1.08249,-0.0225616,-0.0991552,-0.0716844,0.0554322,0,-1.8,0,11916,49.136,29.883,14683.3
376590006,0.63477,2.223,117.03,-0.0176026,0.0286129,0.957257,1.6339,-1.0923,-0.018851,-0.0601126,-0.0673913,-0.0464138,0,-1.8,0,11916,49.136,29.883,14683.3
376690197,0.63477,2.223,117.023,-0.0170643,0.0280895,0.957281,1.63083,-1.09453,-0.0297579,-0.0398214,0.010705,0.0140556,0,-1.8,0,11916,49.136,29.883,14683.3
376790624,0.63477,2.223,117.019,-0.0172214,0.026663,0.95719,1.62011,-1.09211,-0.0160623,-0.0315564,0.0803499,0.124216,0,4.4,0,11916,49.136,29.883,14683.3
376891025,0.63477,2.223,117.011,0.00173331,0.0250525,0.955108,1.61707,-1.08865,-0.013356,0.042146,-0.0942294,0.38133,0,4.4,0,11916,49.136,29.883,14683.3
376991392,0.63477,2.223,117.009,0.179747,0.0172923,0.959194,1.57403,-1.06535,0.0428625,-0.0434795,0.719435,-0.0472638,0,4.4,0,11916,49.136,29.883,14683.3
377091730,0.63477,2.223,117.011,0.333788,0.0128105,0.960242,1.36048,-0.906597,-0.0151733,0.0086792,2.74554,0.145049,0,4.4,0,11916,49.136,29.883,14683.3
377192068,0.63477,2.223,117.012,0.422383,0.0106396,0.960056,1.03972,-0.66715,-0.0408404,0.12369,3.70751,1.54578,0,4.4,0,11916,49.199,25.395,12494.1
377293012,0.63477,2.223,117.01,0.460859,0.0114186,0.960201,0.635206,-0.367018,-0.0393444,0.120723,4.45222,2.0031,0,4.4,0,11916,49.199,25.395,12494.1
377394347,0.63477,2.223,116.998,0.468957,0.0116558,0.959958,0.203734,-0.0469256,-0.0397982,0.153545,4.62671,2.33493,0,4.4,0,11916,49.199,25.395,12494.1
377494862,0.63477,2.223,116.98,0.459433,0.0124722,0.96018,-0.224844,0.265387,-0.0252342,0.0540901,4.39457,2.52373,0,4.4,0,11916,49.199,25.395,12494.1
377595232,0.63477,2.223,116.959,0.447044,0.0144131,0.960308,-0.633013,0.567867,-0.0191543,0.0983944,4.34057,2.11574,0,4.4,0,11916,49.199,25.395,12494.1
377695639,0.63477,2.223,116.946,0.436153,0.0169089,0.960382,-1.01957,0.860496,-0.00626163,0.099679,4.02824,2.13611,0,4.4,0,11916,49.199,25.395,12494.1
377795984,0.63477,2.223,116.937,0.425929,0.021919,0.961644,-1.40012,1.13536,-0.00375244,0.0131989,3.91604,1.93883,0,4.4,0,11916,49.199,25.395,12494.1
377896395,0.63477,2.223,116.932,0.416471,0.0274186,0.962851,-1.77163,1.39254,0.00519255,-0.0389009,3.75744,1.91453,0,4.4,0,11916,49.199,25.395,12494.1
377996760,0.63477,2.223,116.934,0.391069,0.0324729,0.963584,-2.13407,1.64481,0.0162028,-0.0509998,3.73246,1.67894,0,4.4,0,11916,49.199,25.395,12494.1
378097138,0.63477,2.223,116.942,0.339429,0.0353241,0.963109,-2.4581,1.85797,0.0319792,-0.185749,3.24768,1.36471,0,4.4,0,11916,49.199,25.395,12494.1
378199012,0.63477,2.223,116.95,0.286167,0.0339351,0.961845,-2.71987,2.02955,0.0528522,-0.122977,2.6404,0.995516,0,4.4,0,11916,49.196,26.616,13094
378307281,0.63477,2.223,116.973,0.238187,0.0319496,0.960475,-2.9621,2.18168,0.0610844,-0.214832,2.01351,0.274486,0,4.4,0,11916,49.196,26.616,13094
378407663,0.63477,2.223,116.998,0.198131,0.0299149,0.959525,-3.11028,2.29292,0.0595448,-0.0200649,1.63537,0.220442,0,4.4,0,11916,49.196,26.616,13094
378508036,0.63477,2.223,117.012,0.169473,0.0280033,0.958576,-3.22267,2.37463,0.0559051,-0.050215,1.22869,0.148417,0,4.4,0,11916,49.196,26.616,13094
378608361,0.63477,2.223,117.03,0.143764,0.0260982,0.958382,-3.30999,2.44318,0.0499128,-0.0484623,1.02407,-0.173784,0,4.4,0,11916,49.196,26.616,13094
378708660,0.63477,2.223,117.043,0.124197,0.0230828,0.958463,-3.37406,2.49189,0.0383161,-0.0195734,0.788481,-0.0633913,0,4.4,0,11916,49.196,26.616,13094
378809076,0.63477,2.223,117.053,0.110821,0.0255599,0.958761,-3.40989,2.52816,0.0259971,-0.0205626,0.52347,-0.181632,0,4.8,0,11916,49.196,26.616,13094
378909443,0.63477,2.223,117.059,0.111292,0.0274657,0.958172,-3.44945,2.55085,0.0201564,-0.0838462,0.41487,0.637363,0,4.8,0,11916,49.196,26.616,13094
379009826,0.63477,2.223,117.061,0.129272,0.0290213,0.959205,-3.49336,2.59068,0.00919424,-0.0618615,0.75727,-0.690651,0,4.8,0,11916,49.196,26.616,13094
379110178,0.634769,2.223,117.062,0.140984,0.0296,0.959571,-3.54267,2.63204,-0.023707,0.0162348,0.79176,0.152095,0,4.8,0,11916,49.196,26.616,13094
379210497,0.634769,2.223,117.052,0.144704,0.0326179,0.959959,-3.60166,2.67841,-0.0236954,-0.0190672,0.831737,0.0380756,0,4.8,0,11916,49.146,28.327,13921.6
379310817,0.634769,2.223,117.038,0.142831,0.0369827,0.959759,-3.6599,2.71769,-0.0454354,-0.109327,0.833366,0.330941,0,4.8,0,11916,49.146,28.327,13921.6
379411147,0.634769,2.223,117.028,0.138343,0.0393311,0.960013,-3.71912,2.74487,-0.0299885,-0.162742,0.765744,0.227879,0,4.8,0,11916,49.146,28.327,13921.6
379511483,0.634769,2.223,117.023,0.134168,0.038015,0.959726,-3.76418,2.77853,-0.040783,-0.0446607,0.71167,-0.158867,0,4.8,0,11916,49.146,28.327,13921.6
379611783,0.634769,2.223,117.013,0.128352,0.0385942,0.959276,-3.81038,2.80515,-0.03711,-0.0708785,0.59512,0.419589,0,4.8,0,11916,49.146,28.327,13921.6
379712134,0.634769,2.223,117.005,0.117522,0.0377889,0.959184,-3.83522,2.82594,-0.0301727,-0.0329121,0.406289,0.196212,0,4.8,0,11916,49.146,28.327,13921.6
379812488,0.634769,2.223,116.999,0.109137,0.0359755,0.959147,-3.85653,2.844,-0.0153563,-0.0272251,0.392072,0.0802882,0,4.8,0,11916,49.146,28.327,13921.6
379912855,0.634769,2.223,116.993,0.109134,0.0366816,0.959084,-3.8608,2.86073,-0.00950653,0.0217677,0.265083,0.19812,0,4.8,0,11916,49.146,28.327,13921.6
380013210,0.634769,2.223,116.985,0.107983,0.0377076,0.958922,-3.87281,2.86986,-0.0208329,-0.0366104,0.309309,0.00550086,0,4.8,0,11916,49.146,28.327,13921.6
380113591,0.634769,2.223,116.987,0.106804,0.0392438,0.959896,-3.88585,2.87486,-0.00887534,-0.103521,0.277106,0.162562,0,4.8,0,11916,49.146,28.327,13921.6
380213932,0.634769,2.223,116.991,0.106604,0.0434326,0.960407,-3.89935,2.86936,-0.0179076,-0.197121,0.192427,-0.0160483,0,4.8,0,11916,49.146,28.327,13921.6
380314266,0.634769,2.223,116.994,0.103947,0.042832,0.959813,-3.91424,2.87157,-0.00491309,-0.0539885,0.293011,0.0752642,0,4.8,0,11872,49.188,27.315,13435.7
380421820,0.634769,2.223,116.998,0.102823,0.0447297,0.959546,-3.92692,2.87359,-0.0155246,-0.21861,0.366412,-1.01193,0,4.8,0,11872,49.188,27.315,13435.7
380527813,0.634769,2.223,117.005,0.0975106,0.0442467,0.959725,-3.95418,2.85525,-0.0145323,-0.20031,0.18785,0.610167,0,4.8,0,11872,49.188,27.315,13435.7
380630705,0.634769,2.223,117.007,0.0951756,0.0420092,0.959673,-3.96557,2.84788,0.017925,-0.158321,0.138829,0.123875,0,4.8,0,11872,49.188,27.315,13435.7
380731065,0.634769,2.223,117.013,0.0943223,0.0340883,0.959771,-3.98101,2.84104,0.0119373,-0.173229,0.15366,-0.0368205,0,4.8,0,11872,49.188,27.315,13435.7
380831487,0.634769,2.223,117.018,0.0937941,0.031027,0.95954,-3.98821,2.84568,0.0131318,-0.0550283,0.189971,0.0432989,0,2.8,0,11872,49.188,27.315,13435.7
380931802,0.634769,2.223,117.018,0.065295,0.032291,0.961833,-3.99941,2.85509,0.00202441,-0.0916891,0.27104,0.251614,0,2.8,0,11872,49.188,27.315,13435.7
381032216,0.634768,2.223,117.014,-0.0876871,0.0320598,0.95682,-3.95607,2.84006,0.0710215,-0.00527806,-0.595515,0.646893,0,2.8,0,11872,49.188,27.315,13435.7
381132561,0.634768,2.223,117.023,-0.190193,0.0374382,0.953154,-3.78245,2.71298,0.0558965,-0.13602,-2.19968,-0.233668,0,2.8,0,11872,49.188,27.315,13435.7
381232959,0.634768,2.223,117.024,-0.228155,0.0466269,0.952371,-3.56004,2.54317,0.0124223,-0.174692,-2.69238,0.532773,0,2.8,0,11872,49.188,27.315,13435.7
381333836,0.634768,2.223,117.019,-0.224336,0.0510388,0.952277,-3.33206,2.35638,-0.0104943,-0.298867,-2.78302,0.466386,0,2.8,0,11872,49.224,23.181,11410.6
381434279,0.634768,2.223,117.012,-0.193115,0.0533834,0.953461,-3.11195,2.20219,-0.0288925,0.101398,-2.47069,0.669777,0,2.8,0,11872,49.224,23.181,11410.6
381534665,0.634768,2.223,116.995,-0.151188,0.0535216,0.955626,-2.93498,2.04727,-0.0518517,-0.291551,-2.12354,0.329357,0,2.8,0,11872,49.224,23.181,11410.6
381635026,0.634768,2.223,116.976,-0.114873,0.0401132,0.957896,-2.79124,1.90535,-0.0594726,-0.335562,-1.81211,0.345304,0,2.8,0,11872,49.224,23.181,11410.6
381735393,0.634768,2.223,116.971,-0.0799324,0.0248436,0.959238,-2.66294,1.79993,-0.0421744,-0.133154,-1.52243,0.205699,0,2.8,0,11872,49.224,23.181,11410.6
381835760,0.634768,2.223,116.97,-0.0411168,0.0138491,0.959733,-2.55536,1.72768,-0.0331545,0.0462669,-1.0915,0.238555,0,2.8,0,11872,49.224,23.181,11410.6
381936109,0.634768,2.223,116.975,-0.0118577,0.00543179,0.959094,-2.47215,1.68944,-0.0238301,0.152536,-0.738792,-0.303953,0,2.8,0,11872,49.224,23.181,11410.6
382036476,0.634768,2.223,116.986,0.00792874,0.00491888,0.957849,-2.43019,1.66366,-0.00398392,-0.187377,-0.417639,0.660993,0,2.8,0,11872,49.224,23.181,11410.6
382136909,0.634768,2.223,117.006,0.0244043,0.000848623,0.956916,-2.38531,1.66326,0.00405686,0.25018,-0.261132,-0.316875,0,2.8,0,11872,49.224,23.181,11410.6
382237313,0.634768,2.223,117.027,0.035788,0.00430222,0.956997,-2.34586,1.67672,-0.00228691,0.315548,-0.144146,-0.0535163,0,2.8,0,11872,49.224,23.181,11410.6
382337744,0.634768,2.223,117.036,0.0410461,0.00763387,0.95712,-2.32321,1.68943,0.0109954,0.283694,-0.0229241,0.00348711,0,2.8,0,11872,49.252,23.251,11451.6
382438107,0.634768,2.223,117.049,0.043424,0.0132334,0.957295,-2.31247,1.70129,0.0117966,0.141764,0.00951591,-0.360659,0,2.8,0,11872,49.252,23.251,11451.6
382538473,0.634768,2.223,117.056,0.0460633,0.0188764,0.957712,-2.30288,1.71329,0.00503266,0.129678,0.016449,-0.306779,0,2.8,0,11872,49.252,23.251,11451.6
382638832,0.634768,2.223,117.055,0.0477623,0.0242121,0.957826,-2.30345,1.72255,-0.00258242,0.0803413,-0.0222877,0.0312072,0,2.8,0,11872,49.252,23.251,11451.6
382739195,0.634768,2.223,117.056,0.0454486,0.0272179,0.957947,-2.30893,1.73237,0.00599748,0.0339729,0.0246147,-0.110982,0,2.8,0,11872,49.252,23.251,11451.6
382839625,0.634768,2.223,117.06,0.0431244,0.0312818,0.958225,-2.31175,1.72598,-0.00940554,-0.111622,-0.0694205,-0.171895,0,-3,0,11872,49.252,23.251,11451.6
382940052,0.634768,2.223,117.059,0.0235884,0.0269586,0.958932,-2.31333,1.7304,-0.020074,0.0198902,-0.0548587,0.23805,0,-3,0,11872,49.252,23.251,11451.6
383040451,0.634768,2.223,117.048,-0.152726,0.0145671,0.955413,-2.28253,1.72612,0.0548789,0.172688,-0.60718,0.839601,0,-3,0,11872,49.252,23.251,11451.6
383140827,0.634768,2.223,117.047,-0.310081,0.00368463,0.956807,-2.06108,1.59855,0.0422052,0.262584,-2.8353,0.172356,0,-3,0,11872,49.252,23.251,11451.6
383241228,0.634768,2.223,117.052,-0.403498,0.000869587,0.960043,-1.74337,1.41146,-0.022206,0.24584,-3.64556,1.33611,0,-3,0,11872,49.252,23.251,11451.6
383341544,0.634768,2.223,117.044,-0.45113,-0.00071539,0.962836,-1.32752,1.16754,-0.018495,0.328931,-4.43968,1.77917,0,-3,0,11872,49.264,22.05,10862.7
383441917,0.634768,2.223,117.024,-0.466587,0.000367537,0.963022,-0.904112,0.913258,-0.0806691,0.246229,-4.61497,1.98842,0,-3,0,11872,49.264,22.05,10862.7
383542271,0.634768,2.223,116.994,-0.4657,0.00419594,0.963189,-0.458037,0.640365,-0.103075,0.26343,-4.55499,2.4291,0,-3,0,11872,49.264,22.05,10862.7
383642618,0.634768,2.223,116.954,-0.459604,0.00782405,0.962759,-0.0174484,0.369519,-0.126345,0.263422,-4.4724,2.599,0,-3,0,11872,49.264,22.05,10862.7
383742969,0.634768,2.223,116.921,-0.45079,0.0219229,0.957146,0.452841,0.0858867,-0.0949847,0.314481,-4.45886,3.11953,0,-3,0,11872,49.264,22.05,10862.7
383843338,0.634768,2.223,116.893,-0.434119,0.0403601,0.951414,0.902201,-0.21987,-0.0626504,0.0666961,-4.60736,2.39862,0,-3,0,11872,49.264,22.05,10862.7
383943687,0.634768,2.223,116.874,-0.399422,0.0583377,0.94692,1.30124,-0.52204,-0.0456302,-0.172088,-4.25386,2.29189,0,-3,0,11872,49.264,22.05,10862.7
384044088,0.634768,2.223,116.887,-0.330599,0.0648383,0.94669,1.64633,-0.810422,0.00339555,-0.289939,-3.79659,1.82663,0,-3,0,11872,49.264,22.05,10862.7
384144452,0.634768,2.223,116.887,-0.258106,0.0657347,0.947521,1.90318,-1.04681,0.0376293,-0.382652,-2.9391,1.22383,0,-3,0,11872,49.264,22.05,10862.7
384244811,0.634768,2.223,116.947,-0.194811,0.0652091,0.948807,2.10058,-1.22472,0.0639805,-0.314276,-2.29536,0.491891,0,-3,0,11872,49.264,22.05,10862.7
384345154,0.634768,2.223,116.98,-0.145627,0.0635656,0.949547,2.23666,-1.35656,0.0697386,-0.333346,-1.62369,0.0271031,0,-3,0,11827,49.333,21.463,10588.3
384445545,0.634768,2.223,117.002,-0.111262,0.0603934,0.950048,2.32505,-1.45598,0.0643854,-0.316431,-1.11327,-0.0284983,0,-3,0,11827,49.333,21.463,10588.3
384547137,0.634768,2.223,117.02,-0.0882384,0.0575397,0.950383,2.40119,-1.54412,0.0491367,-0.247004,-0.878925,-0.347681,0,-3,0,11827,49.333,21.463,10588.3
384647513,0.634768,2.223,117.027,-0.0710543,0.0537294,0.951125,2.44039,-1.60308,0.0341793,-0.267097,-0.595073,-0.0676534,0,-3,0,11827,49.333,21.463,10588.3
384747879,0.634768,2.223,117.025,-0.0620124,0.0486644,0.951782,2.46366,-1.64044,0.0270085,-0.22161,-0.444023,-0.162704,0,-3,0,11827,49.333,21.463,10588.3
384848370,0.634768,2.223,117.024,-0.0570631,0.0443592,0.952571,2.48458,-1.67037,0.00807382,-0.144661,-0.392108,-0.150853,0,4.5,0,11827,49.333,21.463,10588.3
384948716,0.634768,2.223,117.013,-0.0379691,0.0415423,0.950869,2.50502,-1.69262,0.0109677,-0.0256139,-0.423388,0.222779,0,4.5,0,11827,49.333,21.463,10588.3
385049019,0.634768,2.223,117.012,0.147949,0.0305187,0.956881,2.47963,-1.68307,0.0726478,-0.00840777,0.453862,0.0548911,0,4.5,0,11827,49.333,21.463,10588.3
385149435,0.634768,2.223,117.006,0.341741,0.0213408,0.959589,2.26393,-1.517,-0.0224823,0.137492,2.90619,-0.152907,0,4.5,0,11827,49.333,21.463,10588.3
385249750,0.634768,2.223,116.997,0.459712,0.0163651,0.959197,1.90185,-1.24924,-0.0739457,0.150845,3.97932,1.8744,0,4.5,0,11827,49.333,21.463,10588.3
385350100,0.634768,2.223,116.985,0.507824,0.0145344,0.958655,1.43633,-0.905841,-0.0626471,0.112505,4.72308,2.93751,0,4.5,0,11827,49.334,23.126,11409
385451122,0.634768,2.223,116.97,0.513534,0.0146378,0.958687,0.949748,-0.537496,-0.0506814,0.209007,4.86177,3.04929,0,4.5,0,11827,49.334,23.126,11409
385551545,0.634768,2.223,116.949,0.499162,0.015051,0.958761,0.476116,-0.173956,-0.024563,0.21494,4.78591,2.94375,0,4.5,0,11827,49.334,23.126,11409
385651968,0.634768,2.223,116.946,0.482265,0.0176047,0.959678,0.0200663,0.168489,-0.0116876,0.207942,4.6048,2.69095,0,4.5,0,11827,49.334,23.126,11409
385752355,0.634768,2.223,116.954,0.464695,0.0204533,0.960478,-0.41327,0.492749,0.00680075,0.150279,4.30234,2.45932,0,4.5,0,11827,49.334,23.126,11409
385852711,0.634768,2.223,116.964,0.449284,0.0268575,0.96276,-0.820285,0.795169,0.0235827,0.0915546,4.0712,2.07525,0,4.5,0,11827,49.334,23.126,11409
385953042,0.634768,2.223,116.97,0.435873,0.0337385,0.965104,-1.20399,1.07215,0.0179871,0.0420762,3.88429,1.77436,0,4.5,0,11827,49.334,23.126,11409
386053324,0.634768,2.223,116.979,0.425343,0.0428186,0.968092,-1.57866,1.32828,0.0231768,-0.0776415,3.69682,1.67875,0,4.5,0,11827,49.334,23.126,11409
386153669,0.634768,2.223,116.995,0.408081,0.0485581,0.968929,-1.96275,1.55539,0.0233172,-0.422218,3.71671,1.565,0,4.5,0,11827,49.334,23.126,11409
386253946,0.634768,2.223,117.009,0.361956,0.0483834,0.967659,-2.31891,1.77576,0.0343748,-0.268272,3.33815,1.5823,0,4.5,0,11827,49.334,23.126,11409
386354269,0.634768,2.223,117.02,0.30853,0.0487836,0.966412,-2.61128,1.9512,0.0641524,-0.264116,2.75718,1.06481,0,4.5,0,11827,49.334,23.126,11409
386454642,0.634768,2.223,117.028,0.261066,0.0447949,0.964499,-2.83324,2.09284,0.0535733,-0.219582,2.31946,0.168464,0,4.5,0,11827,49.158,26.471,13012.6
386555018,0.634768,2.223,117.035,0.219944,0.0427456,0.962801,-3.01427,2.2136,0.047069,-0.0912144,1.78049,0.550785,0,4.5,0,11827,49.158,26.471,13012.6
386655425,0.634768,2.223,117.047,0.184734,0.0392867,0.961404,-3.14963,2.30961,0.052284,-0.110521,1.43058,-0.0297385,0,4.5,0,11827,49.158,26.471,13012.6
386755783,0.634768,2.223,117.064,0.162564,0.0393909,0.960901,-3.23842,2.3863,0.0290616,0.0336888,1.05126,-0.0959125,0,4.5,0,11827,49.158,26.471,13012.6
386856197,0.634768,2.223,117.068,0.144329,0.0387296,0.9603,-3.31919,2.45217,0.0100215,0.000582238,0.980538,-0.16749,0,-3,0,11827,49.158,26.471,13012.6
386956576,0.634767,2.223,117.073,0.115145,0.0357616,0.960882,-3.37039,2.50708,-0.00867263,0.0370545,0.78402,-0.41068,0,-3,0,11827,49.158,26.471,13012.6
387056955,0.634767,2.223,117.079,-0.0937647,0.0241498,0.95492,-3.40722,2.54722,0.0536173,0.0622537,0.298343,0.784431,0,-3,0,11827,49.158,26.471,13012.6
387157330,0.634767,2.223,117.101,-0.309561,0.0126776,0.954196,-3.18044,2.42724,0.134144,0.246422,-2.69687,0.365,0,-3,0,11827,49.158,26.471,13012.6
387257685,0.634767,2.223,117.106,-0.428794,0.0141372,0.955327,-2.83296,2.23228,0.0160231,0.240296,-3.92723,0.833506,0,-3,0,11827,49.158,26.471,13012.6
387357992,0.634767,2.223,117.102,-0.478964,0.0122064,0.958028,-2.37972,1.94378,-0.0058586,0.156129,-4.73076,2.26503,0,-3,0,11827,49.158,26.471,13012.6
387458313,0.634767,2.223,117.083,-0.496152,0.0137345,0.957311,-1.91246,1.65008,-0.0676908,0.238731,-4.79555,2.16416,0,-3,0,11827,49.111,26.41,12970.2
387558659,0.634767,2.223,117.049,-0.501281,0.00933677,0.959654,-1.44623,1.34138,-0.119945,0.0486164,-4.83157,2.43614,0,-3,0,11827,49.111,26.41,12970.2
387659053,0.634767,2.223,117.024,-0.505792,0.00355019,0.963162,-0.962651,1.04633,-0.169398,0.284929,-4.82448,2.48934,0,-3,0,11827,49.111,26.41,12970.2
387759410,0.634767,2.223,117.003,-0.503651,0.00474485,0.963005,-0.443321,0.731229,-0.168714,0.319944,-4.93032,3.15252,0,-3,0,11827,49.111,26.41,12970.2
387859811,0.634767,2.223,116.991,-0.492253,0.0160598,0.960168,0.0968157,0.402865,-0.115982,0.297508,-4.93231,3.15289,0,-3,0,11827,49.111,26.41,12970.2
387960217,0.634767,2.223,116.99,-0.470112,0.0338418,0.9552,0.59588,0.0872064,-0.100176,0.202609,-4.69823,2.80703,0,-3,0,11827,49.111,26.41,12970.2
388060579,0.634767,2.223,116.994,-0.443298,0.054284,0.949378,1.0549,-0.23206,-0.0631575,-0.0172247,-4.51007,2.50221,0,-3,0,11827,49.111,26.41,12970.2
388160945,0.634767,2.223,117.002,-0.387715,0.0736587,0.945022,1.46687,-0.538346,-0.0323261,-0.106489,-4.25319,1.92776,0,-3,0,11827,49.111,26.41,12970.2
388261287,0.634767,2.223,117.01,-0.309167,0.0847018,0.943124,1.79239,-0.810061,-0.00549604,-0.298583,-3.46682,1.40396,0,-3,0,11827,49.111,26.41,12970.2
388361611,0.634768,2.223,117.016,-0.233148,0.086698,0.944028,2.02218,-1.02964,0.00379425,-0.42593,-2.62046,0.700751,0,-3,0,11827,49.111,26.41,12970.2
388462003,0.634768,2.223,117.03,-0.168362,0.0832642,0.945717,2.17528,-1.19556,0.00930994,-0.501299,-1.81772,0.246621,0,-3,0,11827,49.07,30.368,14901.6
388562378,0.634768,2.223,117.04,-0.120262,0.0750174,0.947949,2.27101,-1.31667,0.0185295,-0.456188,-1.17208,0.149012,0,-3,0,11827,49.07,30.368,14901.6
388662768,0.634768,2.223,117.039,-0.0905606,0.0649884,0.949661,2.33726,-1.40635,0.0269709,-0.306688,-0.879456,0.153432,0,-3,0,11827,49.07,30.368,14901.6
388763125,0.634768,2.223,117.04,-0.0720199,0.0571137,0.951343,2.37341,-1.4616,0.0132288,-0.218491,-0.496287,-0.228996,0,-3,0,11827,49.07,30.368,14901.6
388863561,0.634768,2.223,117.045,-0.0633431,0.0507579,0.952069,2.39678,-1.49684,0.00885678,-0.162748,-0.319633,0.110413,0,1.1,0,11827,49.07,30.368,14901.6
388963968,0.634768,2.223,117.053,-0.0457607,0.0476908,0.950919,2.41521,-1.53237,0.0112963,-0.163081,-0.344998,-0.0731792,0,1.1,0,11827,49.07,30.368,14901.6
389064391,0.634768,2.223,117.058,0.134977,0.0367967,0.957619,2.41939,-1.5492,0.0789811,-0.0596023,0.0148593,0.501608,0,1.1,0,11827,49.07,30.368,14901.6
389164752,0.634768,2.223,117.07,0.335791,0.0324116,0.962978,2.18922,-1.37668,-0.0201402,0.0258781,3.0428,-0.554108,0,1.1,0,11827,49.07,30.368,14901.6
389266861,0.634768,2.223,117.073,0.45669,0.0323749,0.964032,1.83653,-1.13326,-0.0787971,-0.0962687,3.87287,1.6723,0,1.1,0,11827,49.07,30.368,14901.6
389368861,0.634768,2.223,117.071,0.5041,0.031337,0.963164,1.38263,-0.816324,-0.0903302,0.0181108,4.69377,2.41016,0,1.1,0,11827,49.07,30.368,14901.6
389469229,0.634768,2.223,117.06,0.480103,0.0343758,0.962542,0.900986,-0.464291,-0.0722975,0.0775242,4.91554,2.80646,0,1.1,0,11827,49.226,24.114,11870.4
389569577,0.634768,2.223,117.045,0.397381,0.0380028,0.961473,0.465801,-0.148791,-0.0316625,0.0910925,4.37674,2.3869,0,1.1,0,11827,49.226,24.114,11870.4
389669918,0.634768,2.223,117.048,0.308071,0.0435151,0.961883,0.124448,0.0992888,-0.000577634,0.0213706,3.56648,1.21891,0,1.1,0,11827,49.226,24.114,11870.4
389770236,0.634768,2.223,117.055,0.226069,0.0475836,0.961832,-0.130693,0.280739,-0.00151425,-0.0235883,2.60713,0.517505,0,1.1,0,11827,49.226,24.114,11870.4
389870603,0.634768,2.223,117.057,0.159956,0.0489343,0.961323,-0.314736,0.411127,-0.0024463,-0.0191996,1.77844,0.185684,0,1.1,0,11827,49.226,24.114,11870.4
389970965,0.634768,2.223,117.055,0.113347,0.0501908,0.961205,-0.450763,0.501611,-0.00774472,-0.0754824,1.1829,0.145679,0,1.1,0,11827,49.226,24.114,11870.4
390071318,0.634768,2.223,117.05,0.0806437,0.0508852,0.960518,-0.557521,0.552178,-0.0149462,-0.247712,0.79048,-0.138943,0,1.1,0,11827,49.226,24.114,11870.4
390171685,0.634768,2.223,117.042,0.058785,0.0495406,0.959954,-0.635891,0.597704,-0.0286606,-0.124475,0.550233,0.023061,0,1.1,0,11827,49.226,24.114,11870.4
390272089,0.634768,2.223,117.034,0.044844,0.0470255,0.959412,-0.689347,0.622484,-0.0273615,-0.124396,0.249045,0.130894,0,1.1,0,11827,49.226,24.114,11870.4
390372468,0.634768,2.223,117.026,0.0349565,0.0448145,0.959199,-0.723484,0.649482,-0.0210196,-0.000471603,0.199884,0.107167,0,1.1,0,11827,49.226,24.114,11870.4
390472852,0.634768,2.223,117.02,0.0306355,0.0441205,0.958707,-0.744802,0.677193,-0.024815,0.0612685,0.151581,-0.0545878,0,1.1,0,11827,49.095,28.007,13750
390573219,0.634768,2.223,117.015,0.0269175,0.0424134,0.958653,-0.760254,0.689602,-0.0232307,-0.013437,0.100655,0.17877,0,1.1,0,11827,49.095,28.007,13750
390673611,0.634768,2.223,117.002,0.0273984,0.0445656,0.958823,-0.770912,0.70064,-0.0281861,-0.049714,0.121325,-0.202784,0,1.1,0,11827,49.095,28.007,13750
390774052,0.634768,2.223,116.998,0.0273001,0.0489529,0.958827,-0.773327,0.71255,-0.0373185,-0.000448292,0.0484808,-0.0316999,0,1.1,0,11827,49.095,28.007,13750
390874504,0.634768,2.223,116.99,0.0288189,0.0551667,0.958961,-0.778597,0.72032,-0.0329225,-0.0731658,0.123816,-0.0269705,0,4,0,11827,49.095,28.007,13750
390974873,0.634768,2.223,116.985,0.0592582,0.055261,0.957633,-0.793122,0.726072,-0.0168146,-0.150491,0.200454,0.597437,0,4,0,11827,49.095,28.007,13750
391075197,0.634768,2.223,116.986,0.195392,0.0463521,0.964054,-0.832787,0.756844,0.0171386,-0.0492866,0.888154,-0.251183,0,4,0,11827,49.095,28.007,13750
391175571,0.634768,2.223,116.986,0.316928,0.0409179,0.964822,-0.997747,0.890779,-0.0343208,0.080615,2.35854,0.139676,0,4,0,11827,49.095,28.007,13750
391277274,0.634768,2.223,116.984,0.391685,0.0421511,0.964381,-1.25548,1.09434,-0.0526134,0.137999,3.18183,1.24972,0,4,0,11827,49.095,28.007,13750
391378880,0.634768,2.223,116.988,0.422589,0.0490253,0.964498,-1.5769,1.34002,-0.0431979,0.10913,3.66945,1.76114,0,4,0,11827,49.095,28.007,13750
391479298,0.634768,2.223,116.992,0.398305,0.0563103,0.964172,-1.92921,1.58676,-0.0167272,-0.0691493,3.82753,1.85044,0,4,0,11827,49.114,27.341,13428.3
391579648,0.634768,2.223,116.99,0.345229,0.0629112,0.963977,-2.24197,1.79727,-0.000858045,-0.140129,3.39949,1.47459,0,4,0,11827,49.114,27.341,13428.3
391680072,0.634768,2.223,116.999,0.289981,0.0650105,0.964136,-2.50318,1.96222,0.0226075,-0.204215,2.79108,0.967546,0,4,0,11827,49.114,27.341,13428.3
391780458,0.634767,2.223,117.007,0.238687,0.0680249,0.964755,-2.71545,2.09225,0.0339599,-0.240355,2.34307,0.592907,0,4,0,11827,49.114,27.341,13428.3
391880825,0.634767,2.223,117.016,0.191124,0.0676193,0.963788,-2.88112,2.17847,0.0412414,-0.330086,1.71042,0.389193,0,4,0,11827,49.114,27.341,13428.3
391981170,0.634767,2.223,117.028,0.155668,0.0627467,0.962643,-3.00637,2.24269,0.0423775,-0.289011,1.29709,0.0452549,0,4,0,11827,49.114,27.341,13428.3
392081531,0.634767,2.223,117.034,0.132637,0.0586144,0.96204,-3.09925,2.29084,0.0427672,-0.205732,0.941912,0.0261229,0,4,0,11827,49.114,27.341,13428.3
392181875,0.634767,2.223,117.035,0.116853,0.0551887,0.961035,-3.17219,2.32439,0.0431519,-0.234508,0.706906,0.333865,0,4,0,11827,49.114,27.341,13428.3
392282273,0.634767,2.223,117.039,0.105657,0.0523543,0.960573,-3.23263,2.36887,0.0181756,-0.0622856,0.731863,-0.166355,0,4,0,11827,49.114,27.341,13428.3
392382632,0.634767,2.223,117.044,0.0923654,0.0511716,0.960734,-3.28704,2.40127,0.00769634,-0.116957,0.601106,0.0252051,0,4,0,11827,49.114,27.341,13428.3
392483012,0.634767,2.223,117.046,0.0805443,0.0517445,0.961339,-3.32052,2.42646,0.0070946,-0.0528437,0.40676,0.0078067,0,4,0,11827,49.114,27.341,13428.3
392583379,0.634767,2.223,117.044,0.0760028,0.0522986,0.961299,-3.33293,2.43799,-0.0237483,-0.0420376,0.179518,-0.141714,0,4,0,11827,49.114,27.341,13428.3
392683738,0.634767,2.223,117.039,0.071879,0.0507797,0.960985,-3.34889,2.44447,-0.0145533,-0.0546424,0.213375,0.261278,0,4,0,11827,49.114,27.341,13428.3
392784103,0.634767,2.223,117.038,0.0677714,0.0499569,0.96121,-3.36815,2.4522,-0.0175434,-0.133803,0.175616,0.00255225,0,4,0,11827,49.114,27.341,13428.3
392884523,0.634767,2.223,117.044,0.0603162,0.0491777,0.960857,-3.37722,2.45324,-0.0126936,-0.168682,0.13557,-0.278166,0,-0.2,0,11827,49.114,27.341,13428.3
392984856,0.634767,2.223,117.046,0.0459358,0.0457672,0.961696,-3.37648,2.45334,-0.0208721,-0.0406546,0.144115,0.702507,0,-0.2,0,11827,49.114,27.341,13428.3
393085262,0.634767,2.223,117.053,-0.131551,0.0378397,0.955033,-3.3271,2.43553,0.0781132,0.139145,-0.734406,0.577162,0,-0.2,0,11782,49.136,26.658,13098.7
393185638,0.634767,2.223,117.081,-0.307064,0.034793,0.952034,-3.0911,2.27823,0.0485635,-0.0104412,-3.07388,-0.454035,0,-0.2,0,11782,49.136,26.658,13098.7
393287375,0.634767,2.223,117.093,-0.416637,0.0348399,0.951176,-2.76397,2.04456,-0.0369198,-0.0940941,-3.81377,1.38471,0,-0.2,0,11782,49.136,26.658,13098.7
393389602,0.634767,2.223,117.094,-0.473324,0.0420386,0.947453,-2.35548,1.74539,-0.062561,-0.125359,-4.57429,1.75698,0,-0.2,0,11782,49.136,26.658,13098.7
393490065,0.634767,2.223,117.074,-0.500267,0.0543003,0.941201,-1.93397,1.41601,-0.113465,-0.246465,-4.73507,2.1878,0,-0.2,0,11782,49.136,26.658,13098.7
393590533,0.634767,2.223,117.037,-0.484103,0.0585066,0.93979,-1.49696,1.04749,-0.146882,-0.412692,-4.75585,2.80588,0,-0.2,0,11782,49.136,26.658,13098.7
393691019,0.634767,2.223,117.003,-0.412774,0.0379754,0.950321,-1.07191,0.686571,-0.133202,-0.390214,-4.60031,2.67711,0,-0.2,0,11782,49.136,26.658,13098.7
393791388,0.634767,2.223,116.978,-0.308753,0.00897726,0.96182,-0.702294,0.413543,-0.0953434,-0.0740483,-3.86623,1.60502,0,-0.2,0,11782,49.136,26.658,13098.7
393891745,0.634767,2.223,116.948,-0.206367,0.00204301,0.962322,-0.421723,0.245415,-0.0572573,0.191225,-2.69588,1.14582,0,-0.2,0,11782,49.136,26.658,13098.7
393992098,0.634767,2.223,116.92,-0.127202,0.0151516,0.958397,-0.24686,0.0994385,-0.046014,-0.173124,-1.85967,0.741778,0,-0.2,0,11782,49.136,26.658,13098.7
394092479,0.634767,2.223,116.914,-0.0727142,0.0250737,0.955956,-0.125703,0.00254118,-0.000154175,-0.153774,-1.16612,0.586739,0,-0.2,0,11782,49.179,26.936,13246.9
394192824,0.634767,2.223,116.926,-0.0359109,0.0338521,0.954496,-0.053709,-0.0615327,0.0224298,-0.146838,-0.638008,0.16797,0,-0.2,0,11782,49.179,26.936,13246.9
394293180,0.634767,2.223,116.939,-0.0147067,0.0366085,0.954177,-0.0126024,-0.112019,0.0349447,-0.207407,-0.387097,0.0446487,0,-0.2,0,11782,49.179,26.936,13246.9
394393522,0.634767,2.223,116.96,-0.00339766,0.0348568,0.954571,0.0108184,-0.15947,0.0479948,-0.266022,-0.265186,-0.144265,0,-0.2,0,11782,49.179,26.936,13246.9
394493899,0.634767,2.223,116.974,0.0043925,0.0311944,0.955166,0.0239969,-0.181126,0.0499348,-0.180103,-0.0960535,-0.176382,0,-0.2,0,11782,49.179,26.936,13246.9
394594266,0.634767,2.223,116.986,0.00733016,0.0259792,0.955617,0.0297259,-0.196712,0.0340649,-0.110294,-0.0611702,-0.123629,0,-0.2,0,11782,49.179,26.936,13246.9
394694632,0.634767,2.223,116.993,0.00704527,0.0226314,0.95604,0.0327353,-0.195433,0.0332874,-0.001169,0.0207275,-0.131797,0,-0.2,0,11782,49.179,26.936,13246.9
394795012,0.634767,2.223,116.992,0.00396471,0.0195462,0.956505,0.0392937,-0.203277,0.0236847,-0.0665613,-0.118365,-0.00703936,0,-0.2,0,11782,49.179,26.936,13246.9
394895453,0.634767,2.223,116.988,-0.000374109,0.0151512,0.957012,0.0376372,-0.195403,0.0100464,0.0366349,-0.0532823,-0.144221,0,4.8,0,11782,49.179,26.936,13246.9
394995816,0.634767,2.223,116.979,0.00633043,0.0132066,0.955405,0.0452286,-0.18582,0.00500293,0.0572498,-0.0653801,0.0746918,0,4.8,0,11782,49.179,26.936,13246.9
395096205,0.634767,2.223,116.978,0.150521,0.00618658,0.957497,0.0403723,-0.169106,0.059093,0.0776461,0.236947,0.0588904,0,4.8,0,11782,49.272,24.791,12215
395196560,0.634767,2.223,116.984,0.310465,0.00352231,0.959733,-0.112335,-0.0327198,0.0233589,0.179075,2.29617,-0.651222,0,4.8,0,11782,49.272,24.791,12215
395297086,0.634767,2.223,116.992,0.412022,0.00672584,0.961617,-0.381979,0.179639,-0.0451098,0.157392,3.261,1.16753,0,4.8,0,11782,49.272,24.791,12215
395398580,0.634767,2.223,116.988,0.458458,0.00909635,0.962017,-0.747932,0.461588,-0.0390849,0.18957,3.99709,1.97277,0,4.8,0,11782,49.272,24.791,12215
395498952,0.634767,2.223,116.978,0.469521,0.0100338,0.961927,-1.14538,0.767219,-0.0295607,0.185053,4.16113,2.42064,0,4.8,0,11782,49.272,24.791,12215
395601835,0.634767,2.223,116.977,0.462885,0.0121005,0.961824,-1.54336,1.07563,-0.000684584,0.152642,4.13298,2.30843,0,4.8,0,11782,49.272,24.791,12215
395709212,0.634767,2.223,116.976,0.450115,0.0172788,0.962344,-1.9962,1.42741,0.0025556,0.146544,4.01922,1.97172,0,4.8,0,11782,49.272,24.791,12215
395809572,0.634767,2.223,116.975,0.436185,0.022414,0.962632,-2.36177,1.70657,0.0158618,0.131783,3.86588,1.86418,0,4.8,0,11782,49.272,24.791,12215
395909944,0.634766,2.223,116.973,0.388924,0.0280324,0.962572,-2.70747,1.9637,0.0247718,0.0490922,3.52797,1.74766,0,4.8,0,11782,49.272,24.791,12215
396010238,0.634766,2.223,116.972,0.336886,0.0335669,0.962576,-2.99921,2.18199,0.038061,0.00801844,3.04014,1.21922,0,4.8,0,11782,49.272,24.791,12215
396110523,0.634766,2.223,116.97,0.2826,0.0395527,0.962353,-3.23703,2.35821,0.0350148,-0.0128107,2.52476,0.755825,0,4.8,0,11782,49.111,24.94,12248.3
396210906,0.634766,2.223,116.965,0.237645,0.044446,0.962607,-3.4366,2.49639,0.024566,-0.0988785,2.00782,0.484978,0,4.8,0,11782,49.111,24.94,12248.3
396311254,0.634766,2.22301,116.962,0.198437,0.0445704,0.961599,-3.60233,2.5945,0.0244513,-0.257442,1.60812,0.212278,0,4.8,0,11782,49.111,24.94,12248.3
396411566,0.634766,2.22301,116.961,0.163018,0.0370365,0.95969,-3.72656,2.67516,0.0261255,-0.0723921,1.1442,0.49477,0,4.8,0,11782,49.111,24.94,12248.3
396511941,0.634766,2.22301,116.966,0.131442,0.0324181,0.958745,-3.81313,2.74743,0.0491923,0.0160064,0.888441,0.292406,0,4.8,0,11782,49.111,24.94,12248.3
396612360,0.634766,2.22301,116.966,0.106405,0.0324433,0.958929,-3.87014,2.80348,0.0519422,0.0437187,0.610676,-0.0291392,0,4.8,0,11782,49.111,24.94,12248.3
396712751,0.634766,2.22301,116.966,0.0953837,0.0359592,0.959559,-3.90492,2.83668,0.0433316,0.0120823,0.415684,-0.205874,0,4.8,0,11782,49.111,24.94,12248.3
396813110,0.634766,2.22301,116.964,0.0917373,0.0406732,0.960196,-3.92822,2.864,0.0236122,-0.0316413,0.284984,-0.225566,0,4.8,0,11782,49.111,24.94,12248.3
396913539,0.634766,2.22301,116.964,0.0908548,0.0421311,0.959704,-3.94319,2.87883,0.0122311,-0.033424,0.257641,-0.118042,0,-4.8,0,11782,49.111,24.94,12248.3
397013912,0.634766,2.22301,116.964,0.0492061,0.0410325,0.959935,-3.9623,2.89278,0.00557728,-0.0320739,0.28044,0.491112,0,-4.8,0,11782,49.111,24.94,12248.3
397114297,0.634766,2.22301,116.97,-0.166858,0.0278747,0.953545,-3.92117,2.87234,0.0972855,0.0553484,-0.679352,1.02681,0,-4.8,0,11782,49.172,24.025,11813.6
397214663,0.634766,2.22301,116.992,-0.335981,0.0204014,0.953131,-3.66071,2.71142,0.112332,0.113662,-3.19227,-0.0263141,0,-4.8,0,11782,49.172,24.025,11813.6
397315020,0.634766,2.22301,117.003,-0.4255,0.0221164,0.953272,-3.30654,2.4809,0.0308936,0.0994937,-3.94166,1.56987,0,-4.8,0,11782,49.172,24.025,11813.6
397415368,0.634766,2.22301,117.008,-0.471442,0.0218895,0.953616,-2.8698,2.18919,0.0253862,0.081082,-4.80062,1.69608,0,-4.8,0,11782,49.172,24.025,11813.6
397515722,0.634766,2.22301,117.003,-0.493326,0.026325,0.951637,-2.42392,1.89247,-0.0333031,0.109118,-4.82008,2.01845,0,-4.8,0,11782,49.172,24.025,11813.6
397616106,0.634766,2.22301,116.987,-0.505084,0.0312797,0.949666,-1.95486,1.55777,-0.0770387,-0.0729829,-4.94805,2.62508,0,-4.8,0,11782,49.172,24.025,11813.6
397716478,0.634765,2.22301,116.96,-0.514389,0.0311798,0.947848,-1.48331,1.19764,-0.0933667,-0.195125,-4.98951,2.7778,0,-4.8,0,11782,49.172,24.025,11813.6
397816849,0.634765,2.22301,116.931,-0.518714,0.0215642,0.95318,-0.988608,0.839621,-0.115163,-0.0764026,-5.00808,3.02628,0,-4.8,0,11782,49.172,24.025,11813.6
397917174,0.634765,2.22301,116.902,-0.499574,0.00180657,0.963609,-0.4539,0.473701,-0.0976404,0.0702488,-5.15815,3.28702,0,-4.8,0,11782,49.172,24.025,11813.6
398017510,0.634765,2.22301,116.888,-0.473568,-0.0079115,0.968076,0.0788193,0.145523,-0.0350131,0.335303,-4.8636,3.24855,0,-4.8,0,11782,49.172,24.025,11813.6
398117871,0.634766,2.22301,116.881,-0.443876,-0.00249659,0.964981,0.576193,-0.139433,0.00855012,0.474179,-4.62215,2.44334,0,-4.8,0,11782,49.172,24.025,11813.6
398218228,0.634766,2.22301,116.89,-0.417668,0.0100469,0.959664,1.01484,-0.406784,0.03376,0.306765,-4.24002,2.05149,0,-4.8,0,11782,49.065,27.163,13327.5
398318584,0.634766,2.22301,116.917,-0.395877,0.0250335,0.954036,1.40617,-0.656921,0.0579057,0.148944,-3.85572,1.66837,0,-4.8,0,11782,49.065,27.163,13327.5
398418965,0.634766,2.22301,116.947,-0.377216,0.0380228,0.949486,1.7563,-0.90667,0.0639198,-0.047192,-3.644,1.38273,0,-4.8,0,11782,49.065,27.163,13327.5
398519318,0.634766,2.22301,116.963,-0.364228,0.0475728,0.945728,2.07073,-1.14725,0.051269,-0.105082,-3.44902,1.11837,0,-4.8,0,11782,49.065,27.163,13327.5
398619663,0.634766,2.22301,116.971,-0.356358,0.054823,0.943326,2.36078,-1.37813,0.0504707,-0.210432,-3.22105,1.15871,0,-4.8,0,11782,49.065,27.163,13327.5
398720035,0.634766,2.22301,116.978,-0.339277,0.0591441,0.942174,2.63297,-1.6096,0.0395824,-0.300951,-3.1516,1.03894,0,-4.8,0,11782,49.065,27.163,13327.5
398820384,0.634766,2.22301,116.981,-0.299258,0.05738,0.943386,2.87701,-1.82714,0.036784,-0.297522,-2.82656,1.04085,0,-4.8,0,11782,49.065,27.163,13327.5
398920714,0.634766,2.22301,116.977,-0.25751,0.0537398,0.944953,3.07713,-2.01668,0.0391535,-0.318188,-2.45963,0.491936,0,-3,0,11782,49.065,27.163,13327.5
399021091,0.634766,2.22301,116.971,-0.205545,0.0492879,0.944926,3.24631,-2.16289,0.0274624,-0.208072,-2.05689,0.203553,0,-3,0,11782,49.065,27.163,13327.5
399121455,0.634766,2.22301,116.966,-0.0492595,0.0448861,0.952127,3.37037,-2.27776,0.0591595,-0.182081,-1.27012,0.438936,0,-3,0,11782,49.065,27.163,13327.5
399221809,0.634766,2.22301,116.965,0.0805249,0.0426814,0.956479,3.32914,-2.26526,0.0341941,-0.110214,0.563221,-0.503007,0,-3,0,11782,49.17,24.39,11992.6
399322198,0.634766,2.22301,116.956,0.14351,0.0398675,0.957373,3.19588,-2.18973,-0.003285,-0.118968,1.53541,0.145195,0,-3,0,11782,49.17,24.39,11992.6
399422561,0.634766,2.22301,116.94,0.150361,0.0347138,0.956429,3.01802,-2.07981,-0.00558063,-0.0830945,1.92944,0.46143,0,-3,0,11782,49.17,24.39,11992.6
399522895,0.634766,2.22301,116.933,0.123872,0.0314893,0.955614,2.85848,-1.97452,0.000966852,-0.0433526,1.71204,0.298935,0,-3,0,11782,49.17,24.39,11992.6
399624705,0.634766,2.22301,116.925,0.083535,0.0303931,0.955258,2.70046,-1.87273,0.00951559,-0.0490933,1.31909,0.394257,0,-3,0,11782,49.17,24.39,11992.6
399727576,0.634766,2.22301,116.925,0.0432355,0.0302673,0.955272,2.59689,-1.81249,0.0248617,-0.0655654,0.904187,0.00307954,0,-3,0,11782,49.17,24.39,11992.6
399827915,0.634766,2.22301,116.915,0.012003,0.030038,0.9551,2.51554,-1.76748,0.0268058,-0.0682884,0.619998,0.0696567,0,-3,0,11782,49.17,24.39,11992.6
399928346,0.634766,2.22301,116.913,-0.0101532,0.0294132,0.954912,2.46106,-1.7331,0.0282994,-0.0687059,0.354477,0.00242107,0,-3,0,11782,49.17,24.39,11992.6
400028747,0.634766,2.22301,116.907,-0.0282865,0.0289018,0.955033,2.42368,-1.71633,0.0228245,-0.0645745,0.0937339,0.0126594,0,-3,0,11782,49.17,24.39,11992.6
400129152,0.634766,2.22301,116.9,-0.0395658,0.0273784,0.955183,2.40017,-1.70278,0.0383165,0.000230615,-0.037601,0.0857605,0,-3,0,11782,49.17,24.39,11992.6
400229531,0.634766,2.223,116.893,-0.0484807,0.0271862,0.955239,2.38872,-1.69457,0.0340508,-0.0325313,-0.12524,0.0284644,0,-3,0,11782,49.124,25.62,12585.6
400329853,0.634766,2.223,116.879,-0.0538973,0.0265951,0.955079,2.38658,-1.68841,0.0374366,0.0308962,-0.154582,0.276407,0,-3,0,11782,49.124,25.62,12585.6
400430250,0.634766,2.223,116.863,-0.0570178,0.0273544,0.95513,2.39319,-1.68732,0.0410272,0.0216931,-0.30987,0.0931327,0,-3,0,11782,49.124,25.62,12585.6
400530680,0.634766,2.223,116.848,-0.0573973,0.0283553,0.955027,2.40299,-1.68992,0.0398949,-0.0141777,-0.259955,0.0772589,0,-3,0,11782,49.124,25.62,12585.6
400631039,0.634766,2.223,116.835,-0.0568132,0.0282362,0.955283,2.41908,-1.69508,0.0487574,0.0247893,-0.290523,0.219648,0,-3,0,11782,49.124,25.62,12585.6
400731493,0.634767,2.223,116.826,-0.0561125,0.0285747,0.955333,2.43286,-1.70134,0.0521092,-6.32685e-05,-0.227201,0.247987,0,-3,0,11782,49.124,25.62,12585.6
400831911,0.634767,2.223,116.826,-0.0577738,0.0292502,0.955437,2.4463,-1.70995,0.0661256,-0.0304918,-0.259326,0.238086,0,-3,0,11782,49.124,25.62,12585.6
400938590,0.634767,2.223,116.826,-0.0559103,0.0290036,0.955507,2.46704,-1.72672,0.0711117,-0.00772736,-0.284733,0.216932,0,-1.4,0,11782,49.124,25.62,12585.6
401039006,0.634767,2.223,116.824,-0.0407402,0.0287905,0.953952,2.48295,-1.74151,0.0808003,-0.0402761,-0.183332,0.368461,0,-1.4,0,11782,49.124,25.62,12585.6
401139329,0.634767,2.223,116.826,0.0719326,0.0260398,0.956864,2.48237,-1.74324,0.119177,-0.00656796,0.214625,0.0548188,0,-1.4,0,11782,49.124,25.62,12585.6
401239688,0.634767,2.223,116.836,0.169026,0.0279248,0.959491,2.37936,-1.66086,0.0868808,0.00849606,1.43845,-0.309545,0,-1.4,0,11694,49.082,27.278,13388.6
401340084,0.634767,2.223,116.843,0.215111,0.0290532,0.959753,2.20319,-1.53257,0.0678045,0.0377984,2.16298,0.479039,0,-1.4,0,11694,49.082,27.278,13388.6
401440433,0.634767,2.223,116.842,0.21331,0.0296901,0.95953,1.99711,-1.38416,0.0589715,-0.0197785,2.49156,0.424844,0,-1.4,0,11694,49.082,27.278,13388.6
401540779,0.634767,2.223,116.841,0.181279,0.0287274,0.958729,1.80623,-1.24321,0.0620229,0.0363095,2.23291,0.612922,0,-1.4,0,11694,49.082,27.278,13388.6
401641139,0.634767,2.223,116.848,0.139731,0.0310069,0.958554,1.6478,-1.1243,0.0850903,-0.0304941,1.8601,0.288896,0,-1.4,0,11694,49.082,27.278,13388.6
401741534,0.634767,2.223,116.855,0.0998842,0.0319304,0.958197,1.53211,-1.04225,0.0611419,-0.0519882,1.2888,-0.130548,0,-1.4,0,11694,49.082,27.278,13388.6
401841908,0.634767,2.223,116.849,0.0691675,0.0334558,0.958206,1.44243,-0.982423,0.0695755,-0.0990627,0.961833,0.216092,0,-1.4,0,11694,49.082,27.278,13388.6
401942264,0.634767,2.223,116.849,0.0453265,0.0335677,0.957892,1.37735,-0.93846,0.0722109,-0.041149,0.685041,-0.0453344,0,-1.4,0,11694,49.082,27.278,13388.6
402042634,0.634767,2.223,116.852,0.029775,0.0325706,0.95742,1.32728,-0.899839,0.0724784,0.0295213,0.576281,0.0450131,0,-1.4,0,11694,49.082,27.278,13388.6
402142999,0.634767,2.223,116.845,0.0178992,0.0327777,0.957109,1.29374,-0.86676,0.0736083,0.0310912,0.373645,0.0554897,0,-1.4,0,11694,49.082,27.278,13388.6
402243314,0.634767,2.223,116.839,0.0101995,0.0320424,0.956629,1.26543,-0.847345,0.0746207,-0.0347549,0.253205,0.181011,0,-1.4,0,11694,49.067,25.121,12326.1
402343664,0.634767,2.223,116.838,0.00469276,0.0306823,0.956286,1.2398,-0.828979,0.0665057,-0.00320953,0.234727,-0.100579,0,-1.4,0,11694,49.067,25.121,12326.1
402443988,0.634767,2.223,116.835,-0.0005447,0.0287717,0.955991,1.22526,-0.818966,0.0704482,-0.0228508,0.110395,0.143775,0,-1.4,0,11694,49.067,25.121,12326.1
402544427,0.634767,2.223,116.822,-0.00308202,0.0281115,0.955519,1.22095,-0.808955,0.070395,-0.0191124,0.0895887,0.0863331,0,-1.4,0,11694,49.067,25.121,12326.1
402644787,0.634767,2.223,116.815,-0.00467941,0.0272128,0.955497,1.20161,-0.806114,0.0562596,-0.0403718,0.094638,0.189399,0,-1.4,0,11694,49.067,25.121,12326.1
402745129,0.634767,2.223,116.811,-0.00579225,0.028261,0.955625,1.19984,-0.795358,0.0719772,0.0567686,0.108563,0.138412,0,-1.4,0,11694,49.067,25.121,12326.1
402845474,0.634767,2.223,116.813,-0.00905053,0.0311646,0.955826,1.20186,-0.789459,0.0737147,-0.000326948,0.0642502,-0.110094,0,-1.4,0,11694,49.067,25.121,12326.1
402945889,0.634767,2.223,116.82,-0.0102216,0.0344862,0.955646,1.20104,-0.794497,0.0765021,-0.110225,0.00751144,0.196483,0,2.5,0,11694,49.067,25.121,12326.1
403046261,0.634767,2.223,116.831,0.00712632,0.0343187,0.95393,1.20311,-0.808681,0.0914717,-0.142045,-0.053497,0.406025,0,2.5,0,11694,49.067,25.121,12326.1
403146635,0.634767,2.223,116.847,0.158569,0.0283006,0.95822,1.16169,-0.781796,0.134546,-0.0287518,0.932863,-0.177334,0,2.5,0,11694,49.067,25.121,12326.1
403246987,0.634767,2.223,116.865,0.306059,0.0227313,0.960559,0.988458,-0.643145,0.0646534,0.132809,2.60496,-0.169887,0,2.5,0,11694,49.07,25.415,12471.1
403347336,0.634767,2.223,116.863,0.395073,0.0218231,0.961098,0.701409,-0.427965,0.0335086,0.0476415,3.52158,1.29818,0,2.5,0,11694,49.07,25.415,12471.1
403447691,0.634767,2.223,116.864,0.434471,0.0207982,0.960772,0.343922,-0.154062,0.0337308,0.141014,4.10802,1.96252,0,2.5,0,11694,49.07,25.415,12471.1
403548069,0.634767,2.223,116.858,0.444492,0.0213059,0.960869,-0.0302806,0.128127,0.0399724,0.103369,4.15576,2.10315,0,2.5,0,11694,49.07,25.415,12471.1
403648394,0.634767,2.223,116.851,0.438186,0.0257276,0.961874,-0.399628,0.417156,0.0518315,0.183621,4.23461,2.00064,0,2.5,0,11694,49.07,25.415,12471.1
403748824,0.634767,2.223,116.844,0.396519,0.0294369,0.962011,-0.757945,0.687821,0.0580563,0.122302,3.99614,1.81207,0,2.5,0,11694,49.07,25.415,12471.1
403849176,0.634767,2.223,116.842,0.336147,0.0329256,0.961978,-1.0697,0.926939,0.0762599,0.150298,3.30304,1.94076,0,2.5,0,11694,49.07,25.415,12471.1
403949548,0.634767,2.223,116.849,0.273682,0.037913,0.962237,-1.32506,1.10696,0.0958492,-0.05775,2.7667,0.780107,0,2.5,0,11694,49.07,25.415,12471.1
404049914,0.634767,2.223,116.863,0.220264,0.0385319,0.961874,-1.51872,1.2433,0.0899757,-0.0592886,2.09002,0.800104,0,2.5,0,11694,49.07,25.415,12471.1
404150912,0.634767,2.223,116.875,0.175646,0.0389602,0.961321,-1.67678,1.35239,0.0899673,-0.144957,1.8134,-0.00328618,0,2.5,0,11694,49.07,25.415,12471.1
404251310,0.634767,2.223,116.885,0.14213,0.0376626,0.960893,-1.78261,1.43666,0.0826143,-0.00147833,1.23414,0.0931984,0,2.5,0,11694,49.07,25.415,12471.1
404352690,0.634767,2.223,116.893,0.116948,0.0372128,0.960519,-1.86297,1.49996,0.0747688,-0.0185716,0.939947,0.0313292,0,2.5,0,11694,49.061,25.138,12333
404459005,0.634767,2.223,116.902,0.097244,0.0393942,0.959983,-1.92674,1.54378,0.0708066,-0.0849342,0.706905,0.0096321,0,2.5,0,11694,49.061,25.138,12333
404559384,0.634767,2.223,116.91,0.0835947,0.0395189,0.95921,-1.97148,1.57955,0.0707766,-0.0282515,0.517274,0.00790774,0,2.5,0,11694,49.061,25.138,12333
404659747,0.634767,2.223,116.921,0.0760584,0.0402302,0.959187,-2.00208,1.6075,0.0729494,-0.0429543,0.376173,-0.0814058,0,2.5,0,11694,49.061,25.138,12333
404760110,0.634767,2.223,116.933,0.0723535,0.0397483,0.959017,-2.03,1.62466,0.0610386,-0.0917386,0.378219,-0.0728179,0,2.5,0,11694,49.061,25.138,12333
404860462,0.634767,2.223,116.938,0.0691306,0.0394081,0.958988,-2.03888,1.65301,0.0515015,0.126914,0.31653,-0.281827,0,2.5,0,11694,49.061,25.138,12333
404960872,0.634767,2.223,116.935,0.0686608,0.0419868,0.959197,-2.05444,1.67202,0.0428541,-0.0277052,0.39638,-0.0682127,0,1.7,0,11694,49.061,25.138,12333
405061214,0.634767,2.223,116.937,0.0540352,0.0452841,0.960218,-2.06153,1.69038,0.0328367,0.0193608,0.235213,-0.156865,0,1.7,0,11694,49.061,25.138,12333
405161585,0.634767,2.223,116.943,-0.00696801,0.0498433,0.957666,-2.06013,1.69229,0.0485869,-0.0235805,-0.0826544,0.113765,0,1.7,0,11694,49.061,25.138,12333
405261932,0.634767,2.223,116.949,-0.0457927,0.0537341,0.956568,-2.00058,1.64684,0.0418717,-0.0948308,-0.583121,-0.0878336,0,1.7,0,11694,49.061,25.138,12333
405362305,0.634767,2.223,116.957,-0.0695677,0.054988,0.956356,-1.90153,1.55702,0.0177866,-0.212258,-1.00662,0.107023,0,1.7,0,11694,49.008,27.509,13481.6
405462670,0.634767,2.223,116.957,-0.0664801,0.0548951,0.956663,-1.79993,1.48031,0.0228845,-0.0740605,-1.10636,0.0427944,0,1.7,0,11694,49.008,27.509,13481.6
405563013,0.634767,2.223,116.961,-0.0520518,0.0560951,0.957215,-1.70821,1.41094,0.00760719,-0.106426,-0.937785,-0.026808,0,1.7,0,11694,49.008,27.509,13481.6
405663374,0.634767,2.223,116.962,-0.0336313,0.0530355,0.957682,-1.63389,1.34893,0.00974612,-0.106376,-0.765137,0.0155098,0,1.7,0,11694,49.008,27.509,13481.6
405763752,0.634767,2.223,116.959,-0.0150971,0.0501924,0.958015,-1.57043,1.30223,0.00811118,-0.0552567,-0.535514,-0.0210085,0,1.7,0,11694,49.008,27.509,13481.6
405864067,0.634767,2.223,116.965,0.000786955,0.0497625,0.957697,-1.52133,1.2706,0.00388361,-0.00151636,-0.414497,0.00902064,0,1.7,0,11694,49.008,27.509,13481.6
405964431,0.634767,2.22301,116.977,0.0143368,0.051327,0.957541,-1.48161,1.24762,0.00631912,-0.0220143,-0.234144,-0.200858,0,1.7,0,11694,49.008,27.509,13481.6
406064757,0.634767,2.22301,116.989,0.0237109,0.0531456,0.957768,-1.46101,1.22816,0.00930429,-0.0586436,-0.0757746,-0.0111069,0,1.7,0,11694,49.008,27.509,13481.6
406165138,0.634767,2.22301,117.003,0.031193,0.0528149,0.957582,-1.4433,1.21084,0.019408,-0.0446523,-0.0480604,-0.0204916,0,1.7,0,11694,49.008,27.509,13481.6
406265531,0.634767,2.22301,117.018,0.0386072,0.0539053,0.957802,-1.43152,1.20268,0.0163788,-0.0475593,0.0198747,-0.141871,0,1.7,0,11694,49.008,27.509,13481.6
406365884,0.634767,2.22301,117.028,0.0427372,0.0548755,0.957727,-1.43,1.19511,0.00778402,-0.107319,0.0670807,-0.055727,0,1.7,0,11694,49.011,24.655,12083.7
406466260,0.634767,2.22301,117.035,0.0446122,0.0555122,0.957613,-1.43157,1.18692,0.00387877,-0.125635,0.0915848,-0.137987,0,1.7,0,11694,49.011,24.655,12083.7
406566606,0.634766,2.22301,117.041,0.0458374,0.0540599,0.957755,-1.42928,1.18852,0.00389364,-0.0171516,0.0690504,-0.165979,0,1.7,0,11694,49.011,24.655,12083.7
406666958,0.634766,2.22301,117.036,0.0458234,0.0551074,0.957686,-1.43184,1.18249,-0.000537589,-0.129359,0.0666798,0.0962954,0,1.7,0,11694,49.011,24.655,12083.7
406767372,0.634766,2.22301,117.027,0.0458088,0.0563339,0.957897,-1.44225,1.17672,-0.00428526,-0.155904,0.123674,-0.0913219,0,1.7,0,11694,49.011,24.655,12083.7
406867816,0.634766,2.22301,117.022,0.046983,0.0569498,0.957922,-1.45523,1.16942,-0.0107803,-0.160892,0.14424,-0.132672,0,1.7,0,11694,49.011,24.655,12083.7
406968407,0.634766,2.22301,117.019,0.0467768,0.0565503,0.957872,-1.47638,1.16927,-0.0180459,-0.143934,0.210544,0.192531,0,-4.5,0,11694,49.011,24.655,12083.7
407068769,0.634766,2.22301,117.016,0.014727,0.0544486,0.958618,-1.49776,1.17136,-0.0123904,-0.107735,0.198011,0.366663,0,-4.5,0,11694,49.011,24.655,12083.7
407169102,0.634766,2.22301,117.013,-0.166766,0.0405791,0.951661,-1.4698,1.13117,0.0547721,-0.143534,-0.809224,0.301345,0,-4.5,0,11694,49.011,24.655,12083.7
407269469,0.634766,2.22301,117.016,-0.318196,0.0263156,0.951357,-1.25952,0.989757,0.0190241,0.0570579,-2.69532,0.230709,0,-4.5,0,11694,49.011,24.655,12083.7
407369820,0.634766,2.22301,117.016,-0.410282,0.0194957,0.953268,-0.938269,0.780516,-0.0319438,0.139112,-3.72485,1.29963,0,-4.5,0,11694,49.091,24.313,11935.5
407470183,0.634766,2.22301,117.01,-0.452218,0.0146769,0.955753,-0.532853,0.52282,-0.0321996,0.248291,-4.34396,2.1042,0,-4.5,0,11694,49.091,24.313,11935.5
407570511,0.634766,2.22301,117,-0.467223,0.0143974,0.956812,-0.103563,0.257419,-0.0447997,0.297119,-4.53115,2.10654,0,-4.5,0,11694,49.091,24.313,11935.5
407670831,0.634766,2.22301,116.988,-0.467664,0.0134464,0.958329,0.336068,-0.0125831,-0.0519751,0.315496,-4.48486,2.34557,0,-4.5,0,11694,49.091,24.313,11935.5
407771997,0.634766,2.22301,116.972,-0.457105,0.0185911,0.957002,0.775886,-0.283524,-0.0413823,0.308963,-4.3992,2.36823,0,-4.5,0,11694,49.091,24.313,11935.5
407877283,0.634766,2.22301,116.961,-0.442806,0.0273804,0.954602,1.20069,-0.545229,-0.0361869,0.277802,-4.25066,2.26643,0,-4.5,0,11694,49.091,24.313,11935.5
407977632,0.634766,2.22301,116.957,-0.426633,0.0390382,0.951469,1.6031,-0.804541,-0.0295612,0.195427,-4.24677,1.8714,0,-4.5,0,11694,49.091,24.313,11935.5
408077971,0.634766,2.22301,116.955,-0.407303,0.0524121,0.947705,1.97557,-1.05967,-0.0108698,0.0977982,-3.84911,1.98186,0,-4.5,0,11694,49.091,24.313,11935.5
408178358,0.634766,2.22301,116.945,-0.379842,0.0638847,0.944566,2.30269,-1.3157,-0.0106424,-0.212367,-3.60253,1.57385,0,-4.5,0,11694,49.091,24.313,11935.5
408278706,0.634766,2.22301,116.942,-0.32323,0.0674764,0.944473,2.59347,-1.56233,0.00685835,-0.25889,-3.17891,1.59934,0,-4.5,0,11694,49.091,24.313,11935.5
408379066,0.634767,2.22301,116.949,-0.264763,0.0663651,0.945436,2.83443,-1.75435,0.034453,-0.100511,-2.5611,1.14092,0,-4.5,0,11694,49.089,23.729,11648.3
408479382,0.634767,2.22301,116.948,-0.213142,0.0649925,0.946275,3.00426,-1.91726,0.0350735,-0.306559,-2.00762,0.540309,0,-4.5,0,11694,49.089,23.729,11648.3
408579717,0.634767,2.22301,116.947,-0.17684,0.0621557,0.94714,3.13256,-2.03855,0.0268503,-0.205846,-1.52515,0.308441,0,-4.5,0,11694,49.089,23.729,11648.3
408680820,0.634767,2.22301,116.96,-0.153061,0.0588927,0.948144,3.22952,-2.14167,0.0339994,-0.257584,-1.24728,0.204,0,-4.5,0,11694,49.089,23.729,11648.3
408784094,0.634767,2.223,116.977,-0.135096,0.0539215,0.949694,3.32967,-2.24719,0.02813,-0.174404,-1.02609,0.278523,0,-4.5,0,11694,49.089,23.729,11648.3
408884450,0.634767,2.223,116.981,-0.121055,0.0520938,0.950553,3.40229,-2.30852,0.0211994,-0.0864925,-0.881688,0.000767231,0,-4.5,0,11694,49.089,23.729,11648.3
408984861,0.634767,2.223,116.979,-0.107538,0.0517368,0.951017,3.44857,-2.35779,0.0146753,-0.171224,-0.628083,0.0142653,0,4,0,11694,49.089,23.729,11648.3
409085246,0.634767,2.223,116.979,-0.0827591,0.0470011,0.950084,3.48928,-2.39816,0.0135098,-0.0988475,-0.599267,0.365094,0,4,0,11694,49.089,23.729,11648.3
409185569,0.634767,2.223,116.977,0.134393,0.0313538,0.957828,3.48408,-2.40149,0.0889378,-0.0302796,0.275474,0.376447,0,4,0,11694,49.089,23.729,11648.3
409285919,0.634767,2.223,116.977,0.334645,0.022171,0.9606,3.27363,-2.23224,0.0163475,0.185542,2.97151,-0.291565,0,4,0,11694,49.089,23.729,11648.3
409386279,0.634767,2.223,116.958,0.453894,0.0179624,0.959701,2.91673,-1.96333,-0.0658498,0.175759,4.08893,1.74631,0,4,0,11694,49.039,25.148,12332.3
409486647,0.634767,2.223,116.939,0.510193,0.012988,0.957048,2.45148,-1.6006,-0.0770033,0.230805,5.05669,2.76829,0,4,0,11694,49.039,25.148,12332.3
409586995,0.634767,2.223,116.927,0.51993,0.00992072,0.95525,1.94761,-1.19971,-0.0550689,0.346764,5.19059,3.30522,0,4,0,11694,49.039,25.148,12332.3
409687317,0.634767,2.223,116.915,0.50037,0.0129115,0.956026,1.46296,-0.797722,-0.0389535,0.428758,5.01716,3.16222,0,4,0,11694,49.039,25.148,12332.3
409787782,0.634767,2.223,116.901,0.479097,0.0144308,0.956309,0.999101,-0.421057,-0.0115579,0.34325,4.85933,2.7976,0,4,0,11694,49.039,25.148,12332.3
409888211,0.634767,2.223,116.902,0.460828,0.0206142,0.95817,0.566683,-0.0668839,0.0129663,0.311831,4.53729,2.48687,0,4,0,11694,49.039,25.148,12332.3
409988596,0.634767,2.223,116.912,0.44385,0.0277032,0.961181,0.147594,0.255685,0.0249348,0.140758,4.34481,2.10614,0,4,0,11694,49.039,25.148,12332.3
410088968,0.634767,2.223,116.921,0.426465,0.0362473,0.963836,-0.253419,0.566965,0.0338085,0.145733,4.17313,2.04594,0,4,0,11694,49.039,25.148,12332.3
410189327,0.634767,2.223,116.93,0.414851,0.0465631,0.967183,-0.636332,0.846628,0.0387786,0.0350925,3.97534,1.69865,0,4,0,11694,49.039,25.148,12332.3
410289740,0.634767,2.223,116.94,0.404895,0.0558093,0.97002,-1.00139,1.09449,0.0345623,-0.116857,3.669,1.65489,0,4,0,11694,49.039,25.148,12332.3
410390102,0.634767,2.223,116.953,0.396405,0.0658018,0.972525,-1.35746,1.33186,0.0320849,-0.175094,3.68945,1.26466,0,4,0,11694,49.039,25.148,12332.3
410491224,0.634767,2.223,116.961,0.377175,0.0747233,0.974026,-1.7079,1.5501,0.0202305,-0.281283,3.52261,1.32721,0,4,0,11694,48.968,27.098,13269.3
410595878,0.634767,2.223,116.971,0.330761,0.0778175,0.973394,-2.02978,1.7352,0.028141,-0.377465,3.08997,1.28389,0,4,0,11694,48.968,27.098,13269.3
410696281,0.634767,2.223,116.975,0.280877,0.0794007,0.972357,-2.30266,1.89125,0.0373442,-0.363674,2.67004,0.854342,0,4,0,11694,48.968,27.098,13269.3
410796636,0.634767,2.22301,116.976,0.235764,0.0786834,0.970752,-2.51607,2.00289,0.0343897,-0.401849,2.10303,0.405651,0,4,0,11694,48.968,27.098,13269.3
410897011,0.634767,2.22301,116.988,0.197677,0.0752048,0.96911,-2.68987,2.09626,0.0361915,-0.263813,1.69747,0.501824,0,4,0,11694,48.968,27.098,13269.3
410997442,0.634767,2.22301,117.001,0.16559,0.0717531,0.967114,-2.82327,2.15218,0.0461594,-0.411406,1.22482,0.292191,0,4.7,0,11694,48.968,27.098,13269.3
411097821,0.634767,2.22301,117.005,0.153914,0.0685663,0.96483,-2.925,2.18823,0.0359542,-0.328528,0.948703,0.266952,0,4.7,0,11694,48.968,27.098,13269.3
411198152,0.634767,2.22301,117.004,0.184643,0.0613016,0.966198,-3.02124,2.23389,0.0539893,-0.251662,1.24048,-0.418228,0,4.7,0,11694,48.968,27.098,13269.3
411298533,0.634767,2.22301,117.011,0.208571,0.0580391,0.966359,-3.12572,2.29459,-0.0109278,-0.204134,1.26956,0.00545794,0,4.7,0,11694,48.968,27.098,13269.3
411398907,0.634767,2.22301,117.021,0.215933,0.0543088,0.965108,-3.25361,2.37024,-0.00156749,-0.154207,1.5661,0.270944,0,4.7,0,11694,48.968,27.098,13269.3
411499279,0.634767,2.22301,117.029,0.210998,0.0509094,0.964952,-3.36922,2.44282,-0.00518427,-0.113428,1.49656,0.143815,0,4.7,0,11649,48.999,26.517,12993.1
411599678,0.634767,2.22301,117.026,0.196072,0.0494065,0.964564,-3.48385,2.52093,-0.0117019,-0.028471,1.40568,0.384043,0,4.7,0,11649,48.999,26.517,12993.1
411699965,0.634766,2.22301,117.029,0.177479,0.0493024,0.963928,-3.57535,2.58903,-0.00462024,-0.0243883,1.18376,0.40673,0,4.7,0,11649,48.999,26.517,12993.1
411800336,0.634766,2.22301,117.033,0.161015,0.0512941,0.963751,-3.65572,2.64807,-0.00358181,-0.0179656,1.10113,0.0641042,0,4.7,0,11649,48.999,26.517,12993.1
411900539,0.634766,2.22301,117.035,0.14823,0.0543593,0.963544,-3.71543,2.69331,-0.0148447,-0.0308799,0.857578,0.109408,0,4.7,0,11649,48.999,26.517,12993.1
412000880,0.634766,2.22301,117.025,0.136075,0.0550598,0.96266,-3.76456,2.72689,-0.0360522,-0.0362729,0.674051,0.325335,0,4.7,0,11649,48.999,26.517,12993.1
412101030,0.634766,2.22301,117.022,0.123752,0.0529839,0.961871,-3.83231,2.76715,-0.0135747,-0.128833,0.692584,0.215183,0,4.7,0,11649,48.999,26.517,12993.1
412201271,0.634766,2.22301,117.027,0.114391,0.0526557,0.961838,-3.87189,2.77879,-0.00699286,-0.151403,0.509104,0.0960458,0,4.7,0,11649,48.999,26.517,12993.1
412301669,0.634766,2.22301,117.027,0.111156,0.051505,0.961168,-3.89714,2.79968,-0.0100831,-0.0549869,0.497754,-0.0321682,0,4.7,0,11649,48.999,26.517,12993.1
412402122,0.634766,2.22301,117.026,0.105409,0.0502663,0.960643,-3.92193,2.82151,-0.00190109,-0.0161283,0.459959,-0.0421745,0,4.7,0,11649,48.999,26.517,12993.1
412502500,0.634766,2.22301,117.031,0.102287,0.051926,0.961039,-3.93337,2.8328,-0.0121783,-0.0737002,0.312406,0.0701616,0,4.7,0,11649,48.786,31.357,15297.8
412602867,0.634766,2.22301,117.036,0.0966293,0.0516951,0.960827,-3.95423,2.83503,-0.00338541,-0.129841,0.32133,-0.0164993,0,4.7,0,11649,48.786,31.357,15297.8
412703227,0.634766,2.22301,117.041,0.0944981,0.0510642,0.960983,-3.95578,2.83925,-0.00346328,-0.0281123,0.222852,0.0111052,0,4.7,0,11649,48.786,31.357,15297.8
412803523,0.634766,2.22301,117.047,0.0933215,0.0511607,0.961024,-3.96761,2.84638,-0.00977235,-0.100857,0.183309,0.0887863,0,4.7,0,11649,48.786,31.357,15297.8
412903796,0.634766,2.22301,117.049,0.0902714,0.0498502,0.960962,-3.97624,2.84902,-0.0195418,-0.101477,0.16392,0.138723,0,4.7,0,11649,48.786,31.357,15297.8
413004203,0.634766,2.22301,117.052,0.0923324,0.0485965,0.960288,-3.98444,2.85763,-0.0121474,-0.0561681,0.237609,0.041244,0,-4.9,0,11649,48.786,31.357,15297.8
413104590,0.634766,2.22301,117.044,0.0762091,0.0499577,0.961476,-3.99396,2.87073,-0.025548,-0.00736107,0.299887,0.200875,0,-4.9,0,11649,48.786,31.357,15297.8
413205146,0.634766,2.22301,117.037,-0.118534,0.0390746,0.953805,-3.9613,2.85382,0.0485422,0.101516,-0.602628,1.00545,0,-4.9,0,11649,48.786,31.357,15297.8
413305578,0.634766,2.22301,117.048,-0.310746,0.0234751,0.953052,-3.70539,2.70339,0.0635073,0.230342,-3.05093,0.123784,0,-4.9,0,11649,48.786,31.357,15297.8
413405965,0.634766,2.22301,117.048,-0.398119,0.0193491,0.954748,-3.34869,2.48553,-0.00228626,0.227415,-3.84644,1.69867,0,-4.9,0,11649,48.786,31.357,15297.8
413506343,0.634765,2.22301,117.035,-0.45855,0.0166887,0.9562,-2.9118,2.21278,-0.014308,0.239504,-4.59825,1.94695,0,-4.9,0,11649,48.941,27.323,13372.1
413606662,0.634765,2.22301,117.011,-0.484168,0.0114852,0.958491,-2.44191,1.91383,-0.0586535,0.189819,-4.81897,2.4624,0,-4.9,0,11649,48.941,27.323,13372.1
413706941,0.634765,2.22301,116.972,-0.492418,0.00612759,0.961744,-1.93987,1.6074,-0.0814035,0.30179,-4.91706,2.70484,0,-4.9,0,11649,48.941,27.323,13372.1
413807484,0.634765,2.22301,116.927,-0.496402,0.00292746,0.963674,-1.43407,1.29876,-0.0981202,0.336943,-4.90479,3.09383,0,-4.9,0,11649,48.941,27.323,13372.1
413907855,0.634765,2.22301,116.894,-0.495576,-0.000967011,0.965688,-0.904492,0.993807,-0.0827533,0.491193,-4.98513,3.18499,0,-4.9,0,11649,48.941,27.323,13372.1
414008263,0.634765,2.22301,116.877,-0.483651,0.00562209,0.963725,-0.379233,0.695188,-0.0704534,0.513317,-4.92812,2.98844,0,-4.9,0,11649,48.941,27.323,13372.1
414108621,0.634765,2.22301,116.871,-0.467934,0.015165,0.960252,0.116846,0.394085,-0.0427819,0.363971,-4.72851,2.86479,0,-4.9,0,11649,48.941,27.323,13372.1
414208984,0.634765,2.22301,116.875,-0.449741,0.0246365,0.957005,0.582298,0.104281,-0.014638,0.291408,-4.62018,2.31611,0,-4.9,0,11649,48.941,27.323,13372.1
414309340,0.634765,2.22301,116.892,-0.429195,0.0367294,0.952821,1.00883,-0.180462,0.00880732,0.0988371,-4.42051,1.99871,0,-4.9,0,11649,48.941,27.323,13372.1
414409631,0.634765,2.22301,116.912,-0.410883,0.049406,0.948349,1.39961,-0.46009,0.0193624,-0.051985,-4.02863,1.95499,0,-4.9,0,11649,48.941,27.323,13372.1
414511309,0.634765,2.22301,116.93,-0.394007,0.0603938,0.945034,1.75165,-0.730225,0.0366359,-0.152664,-3.8744,1.54804,0,-4.9,0,11649,48.997,25.718,12601
414611665,0.634766,2.22301,116.95,-0.381263,0.068716,0.942767,2.0725,-0.983865,0.0375406,-0.18608,-3.5898,1.33953,0,-4.9,0,11649,48.997,25.718,12601
414712037,0.634766,2.22301,116.97,-0.372737,0.0754306,0.940653,2.3681,-1.24084,0.0449184,-0.367331,-3.54889,1.15333,0,-4.9,0,11649,48.997,25.718,12601
414812398,0.634766,2.22301,116.984,-0.358596,0.0791426,0.939716,2.64428,-1.49509,0.0380314,-0.442922,-3.39912,1.07063,0,-4.9,0,11649,48.997,25.718,12601
414912715,0.634766,2.22301,116.995,-0.318916,0.0766657,0.941541,2.898,-1.72721,0.0321358,-0.386756,-3.10592,0.980701,0,-4.9,0,11649,48.997,25.718,12601
415013185,0.634766,2.22301,117.004,-0.274984,0.0726077,0.94316,3.11334,-1.92067,0.0327109,-0.318931,-2.68996,0.749605,0,-1.1,0,11649,48.997,25.718,12601
415113557,0.634766,2.22301,117.004,-0.219177,0.0682875,0.943704,3.27764,-2.08222,0.0246894,-0.333437,-2.21642,0.359895,0,-1.1,0,11649,48.997,25.718,12601
415213926,0.634766,2.22301,117,0.0136555,0.0597337,0.956584,3.4056,-2.21523,0.0959977,-0.192091,-1.56014,0.641743,0,-1.1,0,11649,48.997,25.718,12601
415314298,0.634766,2.22301,117.008,0.301886,0.0545823,0.966319,3.29084,-2.14134,0.0780572,-0.0514901,1.95824,-0.656491,0,-1.1,0,11649,48.997,25.718,12601
415414662,0.634766,2.22301,117.016,0.447458,0.0562687,0.968304,2.94498,-1.92201,-0.0371697,-0.138745,4.07466,0.857612,0,-1.1,0,11649,48.997,25.718,12601
415515033,0.634766,2.22301,117.017,0.470635,0.0518639,0.965667,2.47058,-1.62181,-0.065367,-0.187201,4.65789,2.71412,0,-1.1,0,11649,48.997,25.718,12601
415615337,0.634766,2.22301,117.02,0.408006,0.0445349,0.960319,1.99302,-1.30748,-0.0425219,-0.11655,4.84952,2.03564,0,-1.1,0,11649,48.997,25.718,12601
415716614,0.634766,2.22301,117.015,0.306799,0.0393364,0.957309,1.59767,-1.04259,-0.023946,-0.0255339,3.99205,1.4787,0,-1.1,0,11649,48.997,25.718,12601
415821270,0.634766,2.22301,116.995,0.208825,0.0382116,0.957275,1.27135,-0.810359,-0.0161886,0.0662381,2.62736,0.517081,0,-1.1,0,11649,48.997,25.718,12601
415921628,0.634766,2.22301,116.992,0.130168,0.0391727,0.957311,1.0862,-0.675587,-0.00744528,0.0610014,1.78398,0.337317,0,-1.1,0,11649,48.997,25.718,12601
416021958,0.634766,2.22301,116.997,0.071925,0.0419196,0.957836,0.959499,-0.582986,-0.00279298,0.0522721,1.01837,0.0111306,0,-1.1,0,11649,48.997,25.718,12601
416122320,0.634766,2.22301,117,0.0298651,0.0445186,0.957661,0.873628,-0.529907,-0.00186483,-0.0249452,0.515791,0.0564113,0,-1.1,0,11649,49.038,24.061,11799
416223516,0.634766,2.22301,116.995,0.00278825,0.0451084,0.956963,0.816643,-0.49727,-0.00498173,-0.0266144,0.223416,0.0594885,0,-1.1,0,11649,49.038,24.061,11799
416324824,0.634766,2.22301,116.991,-0.0142266,0.0453734,0.956289,0.773083,-0.475706,-0.00097517,-0.0417951,0.0828944,0.122153,0,-1.1,0,11649,49.038,24.061,11799
416425246,0.634766,2.22301,116.989,-0.0259014,0.0447982,0.956074,0.75454,-0.448871,-0.0050612,0.116519,-0.0532594,0.207701,0,-1.1,0,11649,49.038,24.061,11799
416525591,0.634766,2.22301,116.984,-0.0341145,0.0460598,0.956013,0.743315,-0.440288,-0.00137673,-0.020728,-0.123213,-0.0691088,0,-1.1,0,11649,49.038,24.061,11799
416625941,0.634766,2.22301,116.97,-0.0381653,0.0461373,0.956059,0.74025,-0.438493,-0.0104728,-0.0278039,-0.191802,0.14289,0,-1.1,0,11649,49.038,24.061,11799
416726296,0.634766,2.22301,116.967,-0.0394427,0.0442503,0.95641,0.753478,-0.44514,0.00207507,-0.0195879,-0.297728,0.26974,0,-1.1,0,11649,49.038,24.061,11799
416826664,0.634766,2.22301,116.967,-0.0394055,0.0419063,0.956763,0.776706,-0.45206,0.0126242,0.0498024,-0.354253,-0.115491,0,-1.1,0,11649,49.038,24.061,11799
416927096,0.634766,2.22301,116.975,-0.0384043,0.0422027,0.956912,0.80208,-0.458333,0.0139791,0.0571486,-0.323317,-0.120206,0,-1.1,0,11649,49.038,24.061,11799
417027645,0.634766,2.22301,116.977,-0.0356866,0.0440412,0.956986,0.825077,-0.462758,0.00463099,0.0473256,-0.272504,0.0966686,0,-3.5,0,11649,49.038,24.061,11799
417128141,0.634766,2.22301,116.98,-0.0561866,0.0448947,0.957873,0.851863,-0.47506,0.0172453,0.0497252,-0.21991,0.31834,0,-3.5,0,11605,48.905,29.027,14195.7
417228504,0.634766,2.22301,116.987,-0.19069,0.0424033,0.952027,0.896612,-0.507013,0.0156622,-0.128623,-0.768373,-0.261676,0,-3.5,0,11605,48.905,29.027,14195.7
417328800,0.634766,2.22301,116.989,-0.318864,0.0437484,0.949046,1.09546,-0.630197,0.00599615,0.0583996,-2.33295,0.713616,0,-3.5,0,11605,48.905,29.027,14195.7
417429267,0.634766,2.22301,116.987,-0.380485,0.0460962,0.948516,1.38509,-0.822328,-0.0120937,0.0735936,-3.31626,1.04159,0,-3.5,0,11605,48.905,29.027,14195.7
417529633,0.634766,2.22301,116.985,-0.374921,0.0474256,0.949289,1.71126,-1.0496,-0.0150285,0.000205214,-3.55496,1.43438,0,-3.5,0,11605,48.905,29.027,14195.7
417630010,0.634766,2.22301,116.981,-0.327337,0.0493003,0.950459,2.02244,-1.27081,-0.00739679,-0.020295,-3.36064,1.06864,0,-3.5,0,11605,48.905,29.027,14195.7
417730395,0.634766,2.22301,116.979,-0.264475,0.0510917,0.951158,2.27727,-1.44993,0.00731853,-0.00583659,-2.65559,1.08589,0,-3.5,0,11605,48.905,29.027,14195.7
417830758,0.634766,2.22301,116.98,-0.207835,0.0549029,0.950481,2.46644,-1.58831,0.0175252,-0.0490844,-2.0355,0.514434,0,-3.5,0,11605,48.905,29.027,14195.7
417934425,0.634766,2.22301,116.993,-0.163312,0.0555526,0.950911,2.60448,-1.69727,0.0183941,-0.125238,-1.50117,0.168037,0,-3.5,0,11605,48.905,29.027,14195.7
418036462,0.634766,2.22301,117.011,-0.127054,0.055607,0.951593,2.71887,-1.76796,0.0194256,0.0436052,-1.04329,0.159903,0,-3.5,0,11605,48.905,29.027,14195.7
418136789,0.634766,2.22301,117.021,-0.0999288,0.0565018,0.952169,2.78824,-1.83126,0.0229424,-0.140534,-0.738745,-0.157903,0,-3.5,0,11560,48.803,28.885,14096.7
418237140,0.634766,2.22301,117.034,-0.0798819,0.0570416,0.952418,2.844,-1.87971,0.00544368,-0.121634,-0.534128,-0.270943,0,-3.5,0,11560,48.803,28.885,14096.7
418337470,0.634767,2.22301,117.04,-0.0660256,0.0560467,0.953113,2.87645,-1.92275,0.00367403,-0.169592,-0.30053,-0.0879326,0,-3.5,0,11560,48.803,28.885,14096.7
418437819,0.634767,2.22301,117.047,-0.0561817,0.0552966,0.953718,2.90106,-1.95392,0.00218766,-0.172436,-0.237339,-0.34725,0,-3.5,0,11560,48.803,28.885,14096.7
418538192,0.634767,2.22301,117.044,-0.0504379,0.0537471,0.953803,2.90904,-1.98166,-0.0129712,-0.190424,-0.103405,-0.129083,0,-3.5,0,11560,48.803,28.885,14096.7
418638659,0.634767,2.22301,117.034,-0.0469511,0.05065,0.954324,2.91662,-1.99642,-0.0178561,-0.0627868,-0.102421,-0.0444997,0,-3.5,0,11560,48.803,28.885,14096.7
418739099,0.634767,2.22301,117.01,-0.044805,0.0480768,0.954454,2.91181,-2.01526,-0.021643,-0.196636,-0.0278356,0.0765072,0,-3.5,0,11560,48.803,28.885,14096.7
418839536,0.634767,2.22301,116.99,-0.0447113,0.0440714,0.954742,2.91134,-2.02435,-0.0205124,-0.0411574,-0.0320745,0.000944744,0,-3.5,0,11560,48.803,28.885,14096.7
418940988,0.634767,2.22301,116.972,-0.0455505,0.0400671,0.954845,2.90812,-2.02869,-0.0208336,-0.015367,-0.000535219,0.302023,0,-3.5,0,11560,48.803,28.885,14096.7
419044068,0.634767,2.22301,116.962,-0.0462299,0.0379134,0.954802,2.90877,-2.02911,-0.0129686,0.0467806,-0.0516119,0.0802215,0,-4.6,0,11560,48.803,28.885,14096.7
419144414,0.634767,2.22301,116.954,-0.0611447,0.0377913,0.955826,2.91433,-2.02619,0.000220241,0.0626279,0.0123732,0.465488,0,-4.6,0,11560,48.856,27.174,13276.1
419244663,0.634767,2.22301,116.955,-0.127342,0.0369238,0.952882,2.94158,-2.03977,0.0175025,0.0286032,-0.504322,-0.0523557,0,-4.6,0,11560,48.856,27.174,13276.1
419344971,0.634767,2.22301,116.959,-0.187264,0.0389826,0.950926,3.02105,-2.09422,-0.0010214,0.0219704,-1.09484,0.29,0,-4.6,0,11560,48.856,27.174,13276.1
419445331,0.634767,2.22301,116.951,-0.219388,0.0411924,0.950781,3.14442,-2.17762,-0.00618451,-0.0120569,-1.58405,0.328523,0,-4.6,0,11560,48.856,27.174,13276.1
419545710,0.634767,2.22301,116.949,-0.224273,0.0424989,0.951279,3.28738,-2.28194,0.000412382,-0.0740155,-1.78236,0.480606,0,-4.6,0,11560,48.856,27.174,13276.1
419646093,0.634767,2.22301,116.954,-0.205475,0.0420361,0.952241,3.42266,-2.38383,0.00663115,-0.0620739,-1.63077,0.36138,0,-4.6,0,11560,48.856,27.174,13276.1
419746711,0.634767,2.22301,116.957,-0.179627,0.0434187,0.952364,3.54995,-2.46147,0.0228229,0.0551002,-1.42754,0.22432,0,-4.6,0,11560,48.856,27.174,13276.1
419847113,0.634767,2.223,116.962,-0.154792,0.0428151,0.952701,3.63814,-2.52724,0.0286961,-0.0396827,-1.1194,0.0837781,0,-4.6,0,11560,48.856,27.174,13276.1
419947477,0.634767,2.223,116.973,-0.132973,0.041896,0.952809,3.71089,-2.57202,0.0289038,0.0439823,-0.846977,0.111659,0,-4.6,0,11560,48.856,27.174,13276.1
420047915,0.634767,2.223,116.979,-0.113718,0.040574,0.953068,3.76638,-2.60821,0.0341504,0.035641,-0.624424,0.0421656,0,-4.6,0,11560,48.856,27.174,13276.1
420148347,0.634767,2.223,116.973,-0.0980111,0.0410221,0.953458,3.80213,-2.62259,0.0188276,0.0720718,-0.331314,0.17953,0,-4.6,0,11560,48.886,27.229,13311.2
420250696,0.634768,2.223,116.974,-0.0872837,0.043246,0.953654,3.82995,-2.63269,0.0196696,0.0530739,-0.234386,0.0742374,0,-4.6,0,11560,48.886,27.229,13311.2
420354903,0.634768,2.223,116.985,-0.0804311,0.0448366,0.953638,3.84364,-2.63448,0.0263281,0.0530119,-0.0955526,0.114431,0,-4.6,0,11560,48.886,27.229,13311.2
420455355,0.634768,2.223,116.985,-0.0779726,0.0464605,0.953465,3.84282,-2.64485,0.0251311,-0.160718,-0.0434069,-0.118679,0,-4.6,0,11560,48.886,27.229,13311.2
420555776,0.634768,2.223,116.974,-0.0763384,0.0464623,0.953896,3.84112,-2.64532,0.0101141,-0.068343,0.0522844,0.129534,0,-4.6,0,11560,48.886,27.229,13311.2
420656138,0.634768,2.223,116.969,-0.0736901,0.0488386,0.953395,3.84676,-2.65193,0.0143284,-0.036614,-0.0471691,0.160913,0,-4.6,0,11560,48.886,27.229,13311.2
420756528,0.634768,2.223,116.981,-0.072545,0.0486851,0.953959,3.8415,-2.65456,0.0111894,-0.133709,-0.0452285,-0.149991,0,-4.6,0,11560,48.886,27.229,13311.2
420856970,0.634768,2.223,116.984,-0.0715308,0.0469373,0.95427,3.83579,-2.64557,0.0225135,0.00377876,0.0523335,0.101547,0,-4.6,0,11560,48.886,27.229,13311.2
420957402,0.634768,2.223,116.985,-0.0731274,0.0445269,0.955084,3.84023,-2.64407,0.0230266,0.00565092,-0.023303,-0.0141808,0,-4.6,0,11560,48.886,27.229,13311.2
421057931,0.634768,2.223,116.992,-0.0788858,0.0460788,0.955108,3.84085,-2.63313,0.0161862,0.0390129,0.0200544,-0.153267,0,-3,0,11560,48.886,27.229,13311.2
421158370,0.634768,2.223,117.006,-0.0712365,0.0475054,0.954086,3.84265,-2.63698,0.0123001,-0.0770159,-0.0296842,-0.0397138,0,-3,0,11560,48.872,26.328,12867
421258809,0.634768,2.223,117.012,0.0289694,0.0451861,0.958657,3.84212,-2.63431,0.0460592,0.00394294,0.184844,0.13863,0,-3,0,11560,48.872,26.328,12867
421359258,0.634768,2.223,117.009,0.123156,0.0507525,0.960907,3.70366,-2.52424,0.0200754,-0.013958,1.63696,-0.160678,0,-3,0,11560,48.872,26.328,12867
421459719,0.634768,2.223,117.006,0.172758,0.0518744,0.960501,3.51127,-2.39919,0.00878116,-0.116253,2.19358,0.606617,0,-3,0,11560,48.872,26.328,12867
421560138,0.634768,2.223,117.006,0.174347,0.0541847,0.960053,3.29383,-2.26138,0.00235608,-0.212858,2.44256,0.235158,0,-3,0,11560,48.872,26.328,12867
421660591,0.634768,2.223,116.988,0.149375,0.050348,0.958625,3.10374,-2.14513,-0.0124131,-0.193448,2.04224,0.327786,0,-3,0,11560,48.872,26.328,12867
421761030,0.634768,2.223,116.964,0.113449,0.0430017,0.957289,2.9388,-2.03595,-0.0237366,-0.114112,1.80143,0.40571,0,-3,0,11560,48.872,26.328,12867
421861497,0.634768,2.223,116.952,0.0781622,0.0393732,0.957019,2.80568,-1.93387,-0.0223804,-0.000143001,1.53772,0.140249,0,-3,0,11560,48.872,26.328,12867
421961932,0.634768,2.223,116.957,0.0484156,0.0391792,0.956527,2.69472,-1.85453,-0.0253519,-0.0867781,1.22093,0.0474561,0,-3,0,11560,48.872,26.328,12867
422062293,0.634769,2.223,116.955,0.0192862,0.0401347,0.955952,2.61056,-1.79181,-0.0153998,-0.00765577,0.994958,0.0793688,0,-3,0,11560,48.872,26.328,12867
422162682,0.634769,2.223,116.948,-0.00348529,0.0402661,0.955807,2.545,-1.74272,-0.0157287,0.0154902,0.719374,0.102777,0,-3,0,11560,48.902,25.906,12668.6
422263023,0.634769,2.223,116.952,-0.0217388,0.0416863,0.955427,2.50267,-1.70203,-0.000280296,0.0279296,0.47793,-0.00938411,0,-3,0,11560,48.902,25.906,12668.6
422363406,0.634769,2.223,116.953,-0.0381239,0.0445896,0.955504,2.46596,-1.67967,-0.00537403,-0.108846,0.345891,-0.0210304,0,-3,0,11560,48.902,25.906,12668.6
422463817,0.634769,2.223,116.953,-0.0496845,0.0456501,0.955389,2.44994,-1.67132,0.00792296,-0.0930724,0.142824,0.197154,0,-3,0,11560,48.902,25.906,12668.6
422564325,0.634769,2.223,116.952,-0.0562713,0.0471181,0.955147,2.44203,-1.66737,0.0110366,-0.0652095,0.0379625,-0.00206396,0,-3,0,11560,48.902,25.906,12668.6
422664759,0.634769,2.223,116.95,-0.059933,0.0488786,0.954839,2.4367,-1.66681,0.00830798,-0.0650111,-0.00561345,0.0148272,0,-3,0,11560,48.902,25.906,12668.6
422765141,0.634769,2.223,116.956,-0.0606579,0.051427,0.954868,2.44151,-1.67367,0.0169104,-0.102729,-0.0829155,0.0222792,0,-3,0,11560,48.902,25.906,12668.6
422865542,0.634769,2.223,116.953,-0.0599728,0.0528459,0.954919,2.44022,-1.69232,0.0167157,-0.189353,-0.111178,0.0208494,0,-3,0,11560,48.902,25.906,12668.6
422965952,0.634769,2.223,116.948,-0.0609423,0.0504782,0.955276,2.44072,-1.7148,0.0292761,-0.235175,-0.0879917,0.0759728,0,-3,0,11560,48.902,25.906,12668.6
423066477,0.634769,2.223,116.944,-0.0619655,0.0495386,0.955432,2.43756,-1.72956,0.00972341,-0.205193,-0.0582575,-0.117309,0,0.6,0,11560,48.902,25.906,12668.6
423166916,0.634769,2.223,116.938,-0.0347734,0.0477279,0.954465,2.44768,-1.74111,-0.000560924,-0.0248129,-0.154135,0.521199,0,0.6,0,11560,48.902,25.906,12668.6
423267339,0.634769,2.223,116.935,0.164356,0.0430943,0.962338,2.43194,-1.70878,0.0723589,0.317046,0.604344,0.593403,0,0.6,0,11560,48.969,23.749,11629.6
423367714,0.634769,2.223,116.941,0.31434,0.0409495,0.966402,2.22206,-1.55377,0.0197889,-0.00532706,2.89735,-0.0447196,0,0.6,0,11560,48.969,23.749,11629.6
423468138,0.634769,2.223,116.937,0.401817,0.0339787,0.965263,1.88984,-1.32467,-0.0263965,-0.0601784,3.77532,1.7709,0,0.6,0,11560,48.969,23.749,11629.6
423568520,0.634769,2.223,116.938,0.439459,0.0314541,0.964291,1.49534,-1.04141,-0.0276317,-0.00429567,4.41356,1.88343,0,0.6,0,11560,48.969,23.749,11629.6
423668936,0.634769,2.223,116.938,0.42107,0.0346816,0.963656,1.08349,-0.740485,-0.0399065,0.0232191,4.54576,2.19976,0,0.6,0,11560,48.969,23.749,11629.6
423769363,0.634769,2.223,116.939,0.356324,0.0365389,0.962237,0.685202,-0.461835,-0.00454595,-0.0752163,4.24539,1.94191,0,0.6,0,11560,48.969,23.749,11629.6
423869769,0.634769,2.223,116.95,0.278361,0.0391977,0.962116,0.37559,-0.238434,0.00822067,0.024716,3.45551,1.10328,0,0.6,0,11560,48.969,23.749,11629.6
423970133,0.634769,2.223,116.955,0.207282,0.0437286,0.962714,0.156478,-0.0554588,0.0272498,0.224284,2.50969,0.7973,0,0.6,0,11560,48.969,23.749,11629.6
424070570,0.634769,2.223,116.971,0.149687,0.0481384,0.962562,-0.0284711,0.0600938,0.0290387,-0.138462,1.92892,0.290358,0,0.6,0,11560,48.969,23.749,11629.6
424171010,0.634769,2.223,116.99,0.104478,0.0483475,0.961583,-0.163264,0.14003,0.0346737,-0.167524,1.30215,0.352063,0,0.6,0,11560,48.969,23.749,11629.6
424271458,0.634769,2.223,117.004,0.066888,0.0424038,0.960182,-0.263852,0.199825,0.0368828,-0.153165,0.953051,0.0101423,0,0.6,0,11560,48.995,23.822,11671.6
424371908,0.634769,2.223,117.01,0.0387159,0.0391973,0.959698,-0.329459,0.252508,0.0328826,0.0294923,0.679775,0.0818653,0,0.6,0,11560,48.995,23.822,11671.6
424472395,0.634769,2.223,117.018,0.021382,0.040242,0.959776,-0.3623,0.291805,0.0208293,0.0371584,0.375997,-0.185114,0,0.6,0,11560,48.995,23.822,11671.6
424572844,0.634769,2.223,117.022,0.01468,0.0393685,0.959563,-0.375276,0.314883,0.00553985,0.0328823,0.167291,-0.225614,0,0.6,0,11560,48.995,23.822,11671.6
424673254,0.634769,2.223,117.019,0.0134544,0.0420153,0.96,-0.390273,0.339117,-0.00784108,0.0238561,0.18804,-0.0912241,0,0.6,0,11560,48.995,23.822,11671.6
424773623,0.634769,2.223,117.012,0.0141028,0.0453949,0.959928,-0.397459,0.352127,-0.0104946,0.00806714,0.105456,0.430709,0,0.6,0,11560,48.995,23.822,11671.6
424874071,0.634769,2.223,117.004,0.0147987,0.0467331,0.960601,-0.406391,0.362073,-0.00972308,-0.0301977,0.175124,0.0924039,0,0.6,0,11560,48.995,23.822,11671.6
424974462,0.634769,2.223,116.999,0.0162937,0.0496501,0.960473,-0.403088,0.369892,-0.0214328,0.0153041,0.0820076,0.0911573,0,0.6,0,11560,48.995,23.822,11671.6
425075021,0.634769,2.223,116.989,0.0188464,0.0519852,0.96014,-0.409312,0.375119,-0.027417,-0.0903464,0.183334,-0.00759038,0,4.6,0,11560,48.995,23.822,11671.6
425175407,0.634769,2.223,116.983,0.0325881,0.0529461,0.958984,-0.407495,0.38084,-0.0198749,-0.0460512,0.105423,0.102572,0,4.6,0,11560,48.995,23.822,11671.6
425275765,0.634769,2.223,116.979,0.150945,0.0435507,0.963588,-0.421639,0.394842,0.0186344,-0.00471861,0.54371,0.234243,0,4.6,0,11560,48.955,26.733,13087.1
425376138,0.634769,2.223,116.976,0.270444,0.0331313,0.965139,-0.554233,0.499928,-0.0271704,0.00425258,2.06867,-0.132015,0,4.6,0,11560,48.955,26.733,13087.1
425476582,0.634769,2.223,116.966,0.354227,0.0272322,0.963545,-0.776888,0.679236,-0.0558579,0.139088,2.85838,1.21926,0,4.6,0,11560,48.955,26.733,13087.1
425577071,0.634769,2.223,116.965,0.396523,0.0262421,0.962618,-1.07371,0.914143,-0.0486833,0.166246,3.56701,1.57355,0,4.6,0,11560,48.955,26.733,13087.1
425677512,0.634769,2.223,116.959,0.410354,0.030796,0.963247,-1.3817,1.17273,-0.0455154,0.242816,3.72672,1.73832,0,4.6,0,11560,48.955,26.733,13087.1
425777914,0.634769,2.223,116.944,0.408414,0.0384882,0.964913,-1.7064,1.42919,-0.0424172,0.162276,3.81987,1.46731,0,4.6,0,11560,48.955,26.733,13087.1
425878701,0.634769,2.223,116.942,0.402952,0.0463688,0.966801,-2.10905,1.7131,-0.00852313,-0.0118885,3.63435,1.91682,0,4.6,0,11560,48.955,26.733,13087.1
425979140,0.634769,2.223,116.948,0.393311,0.0546408,0.968853,-2.4316,1.93469,0.000510681,-0.0464063,3.56083,1.53077,0,4.6,0,11560,48.955,26.733,13087.1
426079542,0.634769,2.223,116.958,0.354785,0.0610679,0.969069,-2.73607,2.13095,0.020634,-0.164513,3.20644,1.40388,0,4.6,0,11560,48.955,26.733,13087.1
426179945,0.634769,2.223,116.975,0.306279,0.0632056,0.968562,-2.99183,2.29422,0.0448508,-0.0577379,2.67255,1.16219,0,4.6,0,11560,48.955,26.733,13087.1
426280280,0.634769,2.223,116.994,0.260192,0.0652285,0.968282,-3.20407,2.41709,0.0436807,-0.212416,2.27384,0.460555,0,4.6,0,11560,48.874,26.067,12740
426380652,0.634769,2.223,117.014,0.221309,0.0654174,0.967322,-3.37587,2.51919,0.045235,-0.189957,1.8459,0.423311,0,4.6,0,11560,48.874,26.067,12740
426481045,0.634769,2.223,117.023,0.188861,0.0646076,0.966377,-3.51473,2.59975,0.0408467,-0.172193,1.465,0.189005,0,4.6,0,11560,48.874,26.067,12740
426581369,0.634769,2.223,117.027,0.161831,0.0640377,0.964981,-3.62852,2.65811,0.0257674,-0.232277,1.12454,0.168202,0,4.6,0,11560,48.874,26.067,12740
426681702,0.634769,2.223,117.032,0.143902,0.0600482,0.96374,-3.72089,2.70554,0.0125434,-0.177287,1.02193,-0.0511269,0,4.6,0,11560,48.874,26.067,12740
426782068,0.634768,2.223,117.036,0.126588,0.0573725,0.96312,-3.78771,2.74195,-0.000455704,-0.174807,0.757423,-0.0128851,0,4.6,0,11560,48.874,26.067,12740
426882462,0.634768,2.223,117.042,0.115705,0.0565597,0.96298,-3.83509,2.7673,0.00941683,-0.114009,0.590755,0.000666939,0,4.6,0,11560,48.874,26.067,12740
426982927,0.634768,2.223,117.048,0.10523,0.0603018,0.963297,-3.88164,2.78818,-0.00292245,-0.194225,0.498447,-0.142696,0,4.6,0,11560,48.874,26.067,12740
427083414,0.634768,2.223,117.048,0.0958045,0.0610194,0.962831,-3.92389,2.79112,-0.00395408,-0.269013,0.435606,-0.0870974,0,2.6,0,11560,48.874,26.067,12740
427183790,0.634768,2.223,117.046,0.0610008,0.0548391,0.962761,-3.96795,2.79163,-0.00820249,-0.232145,0.468115,0.401668,0,2.6,0,11560,48.874,26.067,12740
427284475,0.634768,2.223,117.049,-0.0906504,0.0481322,0.955803,-3.95279,2.76876,0.0570489,-0.0845494,-0.476565,0.402233,0,2.6,0,11560,48.883,28.08,13726.3
427384861,0.634768,2.223,117.06,-0.194022,0.0468384,0.953495,-3.78062,2.65437,0.0377228,-0.0344679,-2.06169,-0.266364,0,2.6,0,11560,48.883,28.08,13726.3
427486769,0.634768,2.223,117.06,-0.235653,0.0475853,0.953449,-3.55749,2.49461,-0.0163102,-0.0877222,-2.62452,0.486232,0,2.6,0,11560,48.883,28.08,13726.3
427587212,0.634768,2.223,117.051,-0.227517,0.0443363,0.955167,-3.31421,2.31214,-0.0240728,-0.13657,-2.78756,0.477263,0,2.6,0,11560,48.883,28.08,13726.3
427687627,0.634768,2.223,117.043,-0.190718,0.0371447,0.957655,-3.08826,2.1605,-0.0525782,0.00243274,-2.51752,0.210467,0,2.6,0,11560,48.883,28.08,13726.3
427788072,0.634768,2.223,117.029,-0.152413,0.0322242,0.957969,-2.88786,2.03557,-0.0664303,0.0422002,-2.094,0.518806,0,2.6,0,11560,48.883,28.08,13726.3
427888520,0.634768,2.223,117.015,-0.114362,0.027863,0.958409,-2.72424,1.92274,-0.0565861,-0.0215962,-1.64895,0.609294,0,2.6,0,11560,48.883,28.08,13726.3
427989106,0.634768,2.223,117.009,-0.0800539,0.0264649,0.958764,-2.58441,1.84404,-0.0447264,0.0831315,-1.35289,0.144997,0,2.6,0,11560,48.883,28.08,13726.3
428091975,0.634768,2.223,117.001,-0.048873,0.0293824,0.958561,-2.47872,1.78131,-0.0471813,0.0550171,-0.955371,0.103122,0,2.6,0,11560,48.883,28.08,13726.3
428192439,0.634768,2.223,116.996,-0.0206559,0.0356518,0.957941,-2.38945,1.73809,-0.0377681,0.113798,-0.730259,0.261873,0,2.6,0,11560,48.883,28.08,13726.3
428292817,0.634768,2.223,117.002,0.00278799,0.0384736,0.957952,-2.3308,1.70512,-0.0255512,0.0442079,-0.40588,0.060514,0,2.6,0,11560,48.883,28.08,13726.3
428393269,0.634768,2.223,117.017,0.0189224,0.0423586,0.957774,-2.29431,1.69295,-0.0080554,0.0497768,-0.195778,0.0893521,0,2.6,0,11560,48.797,28.569,13940.8
428493653,0.634768,2.223,117.027,0.0300558,0.0472175,0.957906,-2.26541,1.67884,-0.0141796,0.0123122,-0.126029,-0.290267,0,2.6,0,11560,48.797,28.569,13940.8
428593995,0.634768,2.223,117.037,0.0374326,0.0514409,0.957857,-2.26069,1.66902,-0.00575739,-0.0843732,0.0592525,0.193228,0,2.6,0,11560,48.797,28.569,13940.8
428694389,0.634768,2.223,117.05,0.0441082,0.0519881,0.958106,-2.25771,1.66934,-0.00205068,-0.0427266,0.0868732,-0.167341,0,2.6,0,11560,48.797,28.569,13940.8
428794783,0.634768,2.22301,117.067,0.0467393,0.0511602,0.958128,-2.26862,1.6647,-0.00989386,-0.143598,0.136816,-0.0315563,0,2.6,0,11560,48.797,28.569,13940.8
428895109,0.634768,2.22301,117.073,0.0433283,0.0493165,0.958379,-2.28306,1.66332,-0.00602498,-0.0917397,0.0879245,0.0876853,0,2.6,0,11560,48.797,28.569,13940.8
428995478,0.634768,2.22301,117.073,0.0432436,0.0496315,0.958805,-2.29578,1.65943,-0.026818,-0.135441,0.108765,-0.0156368,0,2.6,0,11560,48.797,28.569,13940.8
429096055,0.634768,2.22301,117.073,0.0390576,0.0481798,0.958749,-2.30072,1.67529,-0.0474162,0.0888416,0.097139,0.0582908,0,1.3,0,11560,48.797,28.569,13940.8
429196482,0.634767,2.22301,117.064,0.0219364,0.0476992,0.959706,-2.31183,1.67789,-0.0331352,-0.0177021,0.0107332,0.311198,0,1.3,0,11560,48.797,28.569,13940.8
429296895,0.634767,2.22301,117.054,-0.0675102,0.0473711,0.95502,-2.31072,1.66317,-0.000730255,-0.0791099,-0.366002,-0.0361758,0,1.3,0,11560,48.797,28.569,13940.8
429397189,0.634767,2.22301,117.047,-0.144136,0.0463185,0.952114,-2.22452,1.59159,-0.0346102,-0.136242,-1.25574,-0.0333103,0,1.3,0,11560,48.911,25.292,12370.6
429497579,0.634767,2.22301,117.045,-0.185008,0.0397801,0.952605,-2.0785,1.48284,-0.0366626,-0.0594275,-1.89424,0.27529,0,1.3,0,11560,48.911,25.292,12370.6
429598120,0.634767,2.22301,117.042,-0.18692,0.0357627,0.954058,-1.87638,1.33939,-0.0472919,-0.0629939,-2.11527,0.184527,0,1.3,0,11560,48.911,25.292,12370.6
429698948,0.634767,2.22301,117.038,-0.165131,0.0334028,0.955178,-1.71175,1.22469,-0.0486588,-0.0322928,-2.00395,0.290985,0,1.3,0,11560,48.911,25.292,12370.6
429799238,0.634767,2.22301,117.035,-0.128076,0.0290774,0.956953,-1.56976,1.13243,-0.0423574,0.0618161,-1.70086,0.0859624,0,1.3,0,11560,48.911,25.292,12370.6
429899526,0.634767,2.22301,117.035,-0.0970892,0.0294197,0.957341,-1.45804,1.06893,-0.0306023,0.101826,-1.26666,0.175397,0,1.3,0,11560,48.911,25.292,12370.6
429999902,0.634767,2.22301,117.033,-0.0737344,0.0339105,0.957489,-1.36694,1.01886,-0.0168913,0.105148,-1.03843,-0.0617827,0,1.3,0,11560,48.911,25.292,12370.6
430100317,0.634767,2.22301,117.041,-0.0556491,0.0396043,0.957508,-1.2947,0.976197,-0.0236315,0.0233376,-0.790877,-0.062023,0,1.3,0,11560,48.911,25.292,12370.6
430200718,0.634767,2.22301,117.049,-0.04239,0.0421001,0.957633,-1.23697,0.931743,-0.0278981,-0.0162458,-0.683877,0.0584873,0,1.3,0,11560,48.911,25.292,12370.6
430301089,0.634767,2.22301,117.051,-0.0297555,0.0427071,0.957807,-1.18497,0.895777,-0.0200169,-0.00371235,-0.550253,-0.0440784,0,1.3,0,11560,48.911,25.292,12370.6
430401497,0.634767,2.22301,117.054,-0.0172801,0.0444911,0.957785,-1.15098,0.869621,-0.0264688,-0.0756479,-0.423602,-0.00943606,0,1.3,0,11516,48.942,22.931,11222.9
430501847,0.634767,2.22301,117.05,-0.00781368,0.045942,0.958013,-1.12142,0.847313,-0.0307429,-0.0206774,-0.349895,0.0308519,0,1.3,0,11516,48.942,22.931,11222.9
430602168,0.634767,2.22301,117.047,-0.00104222,0.0473656,0.958229,-1.10816,0.822374,-0.0222738,-0.166323,-0.24642,0.410527,0,1.3,0,11516,48.942,22.931,11222.9
430702486,0.634767,2.22301,117.046,0.00618285,0.0481037,0.95825,-1.10616,0.80458,-0.0259946,-0.0864184,-0.112801,-0.120122,0,1.3,0,11516,48.942,22.931,11222.9
430802872,0.634767,2.22301,117.046,0.0100224,0.0487025,0.958197,-1.09861,0.786676,-0.0305824,-0.105688,-0.193485,-0.0547395,0,1.3,0,11516,48.942,22.931,11222.9
430903225,0.634767,2.22301,117.052,0.0122782,0.0484639,0.958495,-1.09853,0.768269,-0.0258887,-0.135717,-0.20457,0.123814,0,1.3,0,11516,48.942,22.931,11222.9
431004187,0.634767,2.22301,117.061,0.0140274,0.0478489,0.958889,-1.10591,0.752085,-0.0215287,-0.195006,-0.087513,-0.0459369,0,1.3,0,11516,48.942,22.931,11222.9
431106033,0.634767,2.22301,117.066,0.0154431,0.0454448,0.959231,-1.10896,0.735995,-0.0244115,-0.182707,-0.122346,-0.0948524,0,-0.2,0,11516,48.942,22.931,11222.9
431210410,0.634767,2.22301,117.077,-0.0129897,0.0414365,0.95945,-1.11831,0.728496,-0.0238256,-0.123272,-0.0075496,0.36196,0,-0.2,0,11516,48.942,22.931,11222.9
431316896,0.634767,2.22301,117.094,-0.121348,0.038766,0.953454,-1.07067,0.689241,0.0119788,-0.0283852,-0.940758,-0.25616,0,-0.2,0,11516,48.942,22.931,11222.9
431421551,0.634767,2.22301,117.109,-0.212649,0.0377418,0.950758,-0.930364,0.595497,-0.0337264,-0.00507306,-1.83994,-0.088592,0,-0.2,0,11516,48.94,23.313,11409.4
431522070,0.634767,2.22301,117.117,-0.24049,0.0366564,0.951122,-0.73314,0.460208,-0.0475459,0.00976861,-2.45823,0.464204,0,-0.2,0,11516,48.94,23.313,11409.4
431622458,0.634767,2.22301,117.126,-0.22757,0.0346292,0.952176,-0.536037,0.316661,-0.0526831,-0.0416682,-2.46303,0.398765,0,-0.2,0,11516,48.94,23.313,11409.4
431722823,0.634767,2.22301,117.13,-0.193239,0.033116,0.953603,-0.363622,0.189572,-0.0614553,-0.0578301,-2.07313,0.461819,0,-0.2,0,11516,48.94,23.313,11409.4
431823192,0.634767,2.22301,117.123,-0.15667,0.0320202,0.954321,-0.210197,0.0819511,-0.0670664,-0.0158149,-1.82889,0.316552,0,-0.2,0,11516,48.94,23.313,11409.4
431923548,0.634767,2.22301,117.117,-0.120053,0.0337987,0.953996,-0.0845541,0.00535667,-0.0618716,0.0684109,-1.40193,0.163397,0,-0.2,0,11516,48.94,23.313,11409.4
432023899,0.634767,2.22301,117.11,-0.0880621,0.0383256,0.954196,0.00774419,-0.055699,-0.0650549,0.000971574,-1.06698,0.134022,0,-0.2,0,11516,48.94,23.313,11409.4
432124295,0.634767,2.22301,117.102,-0.0652258,0.0411801,0.953851,0.0713065,-0.103358,-0.066988,-0.0592981,-0.739692,0.115562,0,-0.2,0,11516,48.94,23.313,11409.4
432224665,0.634767,2.22301,117.102,-0.0482942,0.043198,0.954615,0.115202,-0.142275,-0.064808,-0.118495,-0.539011,-0.0146958,0,-0.2,0,11516,48.94,23.313,11409.4
432325083,0.634767,2.22301,117.102,-0.0342929,0.0417034,0.954784,0.144331,-0.166897,-0.0601133,-0.0516523,-0.312236,0.175481,0,-0.2,0,11516,48.94,23.313,11409.4
432425415,0.634767,2.22301,117.106,-0.0237396,0.0412822,0.955077,0.17112,-0.185898,-0.0474227,-0.0207271,-0.288974,0.12988,0,-0.2,0,11516,48.954,23.688,11596.2
432525795,0.634767,2.22301,117.106,-0.0147704,0.040234,0.955209,0.179507,-0.208474,-0.0535125,-0.145352,-0.190616,-0.0476266,0,-0.2,0,11516,48.954,23.688,11596.2
432626098,0.634767,2.22301,117.103,-0.0117652,0.0371261,0.95561,0.185178,-0.220997,-0.0578826,-0.105482,-0.140532,0.0667336,0,-0.2,0,11516,48.954,23.688,11596.2
432726456,0.634767,2.22301,117.099,-0.0111819,0.0351505,0.955691,0.192542,-0.221557,-0.0477004,0.00346766,-0.0742285,0.0269273,0,-0.2,0,11516,48.954,23.688,11596.2
432826767,0.634767,2.22301,117.085,-0.0128313,0.0351353,0.956178,0.198697,-0.218311,-0.0597054,0.0305433,-0.0578808,-0.0472068,0,-0.2,0,11516,48.954,23.688,11596.2
432927065,0.634767,2.22301,117.072,-0.0130819,0.0355064,0.956161,0.215502,-0.214658,-0.0614746,0.077034,-0.0822294,0.203964,0,-0.2,0,11516,48.954,23.688,11596.2
433027457,0.634767,2.22301,117.062,-0.0118719,0.0356982,0.956386,0.227646,-0.209869,-0.0472059,0.0616114,-0.1109,0.103146,0,-0.2,0,11516,48.954,23.688,11596.2
433127853,0.634767,2.22301,117.05,-0.0125975,0.037825,0.956268,0.232929,-0.200717,-0.0476532,0.0285854,-0.0213128,0.214639,0,0.4,0,11516,48.954,23.688,11596.2
433228287,0.634767,2.22301,117.039,0.00713511,0.0391572,0.955776,0.239229,-0.198366,-0.0314727,0.0744611,-0.141651,0.539409,0,0.4,0,11516,48.954,23.688,11596.2
433328653,0.634767,2.22301,117.025,0.0550708,0.0377053,0.957789,0.220021,-0.181854,-0.0202155,-0.00156819,0.333956,-0.208608,0,0.4,0,11516,48.954,23.688,11596.2
433428999,0.634767,2.22301,117.016,0.0849548,0.0390327,0.958625,0.156125,-0.129688,-0.0447294,0.0152784,0.735796,0.0505623,0,0.4,0,11472,48.95,23.565,11535.1
433529359,0.634767,2.22301,117.002,0.0947509,0.0412974,0.958477,0.0732644,-0.0681777,-0.0417752,0.0232516,0.973495,0.195107,0,0.4,0,11472,48.95,23.565,11535.1
433629691,0.634767,2.22301,117.001,0.0881372,0.0448599,0.958544,-0.0239496,-0.00603934,-0.0330843,-0.0566081,1.0559,0.18846,0,0.4,0,11472,48.95,23.565,11535.1
433730066,0.634767,2.22301,117.001,0.0706674,0.0443823,0.95847,-0.106926,0.0421981,-0.0219298,-0.145123,0.853016,0.0598299,0,0.4,0,11472,48.95,23.565,11535.1
433830430,0.634767,2.22301,117.003,0.0530002,0.0423511,0.958362,-0.168985,0.0747932,-0.00993749,-0.131719,0.585601,-0.032651,0,0.4,0,11472,48.95,23.565,11535.1
433930785,0.634767,2.22301,117.012,0.0383096,0.0405765,0.958703,-0.220135,0.10435,-0.00648581,-0.117011,0.519417,-0.18293,0,0.4,0,11472,48.95,23.565,11535.1
434031164,0.634767,2.22301,117.018,0.0236521,0.0357243,0.958518,-0.254994,0.12666,-0.00216204,-0.0103336,0.267643,0.109989,0,0.4,0,11472,48.95,23.565,11535.1
434131529,0.634767,2.22301,117.029,0.0141653,0.0343105,0.958521,-0.269187,0.147974,0.00355345,0.0617791,0.148528,-0.14116,0,0.4,0,11472,48.95,23.565,11535.1
434232781,0.634767,2.22301,117.039,0.00740599,0.0325033,0.958265,-0.274481,0.165743,8.118e-05,0.0859516,0.056418,-0.118285,0,0.4,0,11472,48.95,23.565,11535.1
434338319,0.634767,2.22301,117.05,0.00327107,0.0321,0.958434,-0.281752,0.182674,0.00333233,0.0422835,0.0770595,-0.0955993,0,0.4,0,11472,48.95,23.565,11535.1
434438695,0.634767,2.22301,117.048,0.000954202,0.0343796,0.958173,-0.287242,0.195203,-0.00539635,0.0152304,0.0196998,-0.00802297,0,0.4,0,11472,48.95,23.565,11535.1
434539051,0.634767,2.22301,117.038,-0.00404496,0.0363975,0.958049,-0.283093,0.20327,-0.020335,0.00382419,-0.0449233,0.193007,0,0.4,0,11472,48.908,23.851,11665
434639397,0.634767,2.22301,117.029,-0.0053222,0.0375609,0.957823,-0.277101,0.205074,-0.0253135,0.0168822,-0.0641352,-0.0687406,0,0.4,0,11472,48.908,23.851,11665
434739773,0.634767,2.22301,117.022,-0.00477662,0.0396436,0.957495,-0.272585,0.200699,-0.0257518,-0.0647813,-0.102147,-0.00476242,0,0.4,0,11472,48.908,23.851,11665
434840139,0.634767,2.22301,117.014,-0.0032344,0.040222,0.957228,-0.263402,0.194086,-0.0164323,-0.039415,-0.109636,0.147355,0,0.4,0,11472,48.908,23.851,11665
434941612,0.634767,2.22301,117,-0.00228888,0.0404311,0.957054,-0.267325,0.20049,-0.0221709,-0.021565,0.0529324,-0.275528,0,0.4,0,11472,48.908,23.851,11665
435042971,0.634767,2.22301,116.991,-0.000697502,0.0420704,0.957068,-0.26134,0.194632,-0.016808,-0.0381444,-0.0660558,0.354967,0,0.4,0,11472,48.908,23.851,11665
435143338,0.634767,2.22301,116.985,-0.000191199,0.0410049,0.95658,-0.270545,0.187055,-0.00972924,-0.0947486,0.037173,0.133607,0,-1.4,0,11472,48.908,23.851,11665
435243649,0.634767,2.22301,116.976,-0.0249191,0.0391575,0.957693,-0.269383,0.181806,-0.0120566,-0.0399974,0.0593882,0.402326,0,-1.4,0,11472,48.908,23.851,11665
435344044,0.634767,2.22301,116.971,-0.165026,0.0372726,0.952019,-0.234964,0.15511,0.0384071,-0.0355191,-0.726532,0.205705,0,-1.4,0,11472,48.908,23.851,11665
435444381,0.634767,2.22301,116.977,-0.263966,0.0368318,0.950233,-0.0711067,0.0367345,0.00184824,-0.0247828,-2.1563,-0.105843,0,-1.4,0,11472,48.908,23.851,11665
435544685,0.634767,2.22301,116.973,-0.300921,0.0385986,0.949636,0.159239,-0.128484,-0.0207156,-0.00360233,-2.72446,0.873507,0,-1.4,0,11472,48.921,24.069,11774.8
435644940,0.634767,2.22301,116.964,-0.281771,0.03984,0.950209,0.406688,-0.308028,-0.0183132,-0.0648013,-2.79022,1.06322,0,-1.4,0,11472,48.921,24.069,11774.8
435745216,0.634767,2.22301,116.95,-0.234985,0.0394586,0.951179,0.627984,-0.467586,-0.0158482,0.0369876,-2.51225,0.7858,0,-1.4,0,11472,48.921,24.069,11774.8
435845592,0.634767,2.22301,116.952,-0.184712,0.0375003,0.952127,0.809045,-0.591754,-0.00269711,0.0442054,-2.00432,0.571185,0,-1.4,0,11472,48.921,24.069,11774.8
435945949,0.634767,2.22301,116.959,-0.137722,0.0355737,0.952783,0.947158,-0.687749,0.0171757,0.0305292,-1.50024,0.477582,0,-1.4,0,11472,48.921,24.069,11774.8
436046294,0.634767,2.22301,116.979,-0.102436,0.0333052,0.952875,1.03241,-0.753822,0.020797,-0.0484502,-0.969077,0.165326,0,-1.4,0,11472,48.921,24.069,11774.8
436146639,0.634767,2.22301,116.994,-0.0782368,0.0327569,0.952769,1.09871,-0.793813,0.0187867,0.0312882,-0.644628,-0.000190776,0,-1.4,0,11472,48.921,24.069,11774.8
436247001,0.634767,2.22301,117.005,-0.0608895,0.0350151,0.952688,1.15621,-0.822955,0.0128858,0.0399805,-0.45163,0.142802,0,-1.4,0,11472,48.921,24.069,11774.8
436347364,0.634767,2.22301,117.015,-0.0504906,0.0369207,0.95266,1.18935,-0.844389,0.0155906,-0.00330431,-0.311412,-0.0842282,0,-1.4,0,11472,48.921,24.069,11774.8
436447750,0.634767,2.22301,117.022,-0.0449968,0.0381971,0.953126,1.21273,-0.865179,0.019747,-0.0522977,-0.264332,0.0113408,0,-1.4,0,11472,48.921,24.069,11774.8
436548112,0.634767,2.22301,117.027,-0.0399403,0.0384845,0.953448,1.23285,-0.883938,-0.00344707,-0.0699413,-0.192084,-0.247418,0,-1.4,0,11428,48.916,23.935,11708
436648461,0.634767,2.22301,117.028,-0.0365588,0.0373833,0.95363,1.25058,-0.889973,-0.0105888,0.0286605,-0.131133,0.131434,0,-1.4,0,11428,48.916,23.935,11708
436748806,0.634767,2.22301,117.031,-0.0353923,0.0353844,0.954228,1.26013,-0.903328,-0.00306398,-0.0963988,-0.152021,-0.15306,0,-1.4,0,11428,48.916,23.935,11708
436849177,0.634767,2.22301,117.038,-0.0330432,0.0315246,0.955102,1.26565,-0.911724,-0.00986361,-0.100643,-0.111236,-0.220287,0,-1.4,0,11428,48.916,23.935,11708
436949534,0.634767,2.22301,117.047,-0.0319429,0.0296644,0.955727,1.26915,-0.905598,-0.00654282,0.0354868,-0.0335993,-0.0187757,0,-1.4,0,11428,48.916,23.935,11708
437049897,0.634767,2.22301,117.058,-0.0348641,0.0292718,0.956663,1.27333,-0.898136,-0.00312384,0.0119331,-0.0416876,-0.0445522,0,-1.4,0,11428,48.916,23.935,11708
437150316,0.634767,2.22301,117.065,-0.0388377,0.0305738,0.957613,1.288,-0.881971,-0.00281979,0.264734,-0.11091,0.0211006,0,3,0,11428,48.916,23.935,11708
437250679,0.634767,2.22301,117.07,-0.0284689,0.0345112,0.956701,1.30568,-0.881412,-0.0127416,0.0658222,-0.179777,-0.0851217,0,3,0,11428,48.916,23.935,11708
437351021,0.634767,2.22301,117.073,0.132697,0.030313,0.961396,1.29976,-0.88023,0.0341978,-0.00359236,0.185481,0.178877,0,3,0,11428,48.916,23.935,11708
437451455,0.634767,2.22301,117.072,0.30173,0.0255611,0.963387,1.137,-0.746817,-0.0114857,0.127878,2.39595,-0.458939,0,3,0,11428,48.916,23.935,11708
437551827,0.634767,2.22301,117.059,0.399524,0.02459,0.963243,0.859082,-0.543311,-0.0880295,0.0458045,3.36488,1.02706,0,3,0,11428,48.904,24.308,11887.6
437652199,0.634767,2.22301,117.034,0.439337,0.0238362,0.962649,0.482429,-0.264775,-0.0905811,0.121424,4.10728,2.15528,0,3,0,11428,48.904,24.308,11887.6
437752533,0.634767,2.22301,117.018,0.443689,0.0274312,0.963375,0.083685,0.0335255,-0.0799239,0.146183,4.32369,2.18193,0,3,0,11428,48.904,24.308,11887.6
437852876,0.634767,2.22301,117.003,0.429505,0.0339999,0.964578,-0.311739,0.330081,-0.060612,0.108767,4.13471,2.37762,0,3,0,11428,48.904,24.308,11887.6
437953232,0.634767,2.22301,116.988,0.401668,0.0414513,0.965718,-0.691067,0.602386,-0.0307447,0.0645985,3.98202,2.08566,0,3,0,11428,48.904,24.308,11887.6
438053572,0.634767,2.22301,116.991,0.344333,0.0477024,0.966187,-1.04207,0.844391,-0.00623186,-0.0820833,3.59523,1.78652,0,3,0,11428,48.904,24.308,11887.6
438153956,0.634767,2.22301,117.002,0.283228,0.0520697,0.966382,-1.32899,1.02999,0.0223885,-0.145015,2.90753,1.12501,0,3,0,11428,48.904,24.308,11887.6
438254284,0.634767,2.22301,117.011,0.228328,0.0545108,0.96551,-1.56079,1.17573,0.0333093,-0.188819,2.38411,0.453413,0,3,0,11428,48.904,24.308,11887.6
438354575,0.634767,2.22301,117.009,0.181476,0.0523921,0.963888,-1.7427,1.28522,0.0328125,-0.172873,1.80134,0.325472,0,3,0,11428,48.904,24.308,11887.6
438454843,0.634767,2.22301,117.019,0.146101,0.048324,0.962758,-1.88146,1.36971,0.0370138,-0.0977974,1.36968,0.0858502,0,3,0,11428,48.904,24.308,11887.6
438555124,0.634767,2.22301,117.031,0.122355,0.0457271,0.962014,-1.98611,1.43931,0.0231075,-0.145668,1.13337,-0.269969,0,3,0,11428,48.904,24.308,11887.6
438655483,0.634767,2.22301,117.027,0.105284,0.0407036,0.960952,-2.08217,1.49659,0.00354825,-0.0951974,0.768706,-0.0396616,0,3,0,11428,48.904,24.308,11887.6
438755846,0.634767,2.22301,117.017,0.0916418,0.0368118,0.96015,-2.15217,1.54188,-0.000884186,-0.0743855,0.7222,0.144551,0,3,0,11428,48.904,24.308,11887.6
